Countdown,color1,color2,correct,screenshot,trials.thisRepN,trials.thisTrialN,trials.thisN,trials.thisIndex,trials_6040.thisRepN,trials_6040.thisTrialN,trials_6040.thisN,trials_6040.thisIndex,trials_5743.thisRepN,trials_5743.thisTrialN,trials_5743.thisN,trials_5743.thisIndex,trials_5446.thisRepN,trials_5446.thisTrialN,trials_5446.thisN,trials_5446.thisIndex,trials_5149.thisRepN,trials_5149.thisTrialN,trials_5149.thisN,trials_5149.thisIndex,key_resp_4.started,key_resp_4.keys,key_resp_4.rt,key_resp_2.started,key_resp_2.keys,key_resp_2.rt,key_resp_3.keys,Videoshowstart,Videoshowstop,VideoshowRT,response_3.keys,response_3.corr,response_3.rt,key_skip_3.keys,total_score,Dot_ratio,current_score,response_4.keys,response_4.corr,response_4.rt,key_skip_4.keys,text_2.started,text_5.started,key_resp.started,text_9.started,key_resp.keys,key_resp.rt,text_10.started,text_10.stopped,participant,Task,Dot Ratio,Deadline,date,expName,psychopyVersion,frameRate,Unnamed: 62,corr,key_skip,response_keys,response_RT
1.5,red,green,right,Countdown_1.5s.jpg,0.0,0.0,0.0,0.0,0.0,0.0,0.0,0.0,0.0,0.0,0.0,2.0,0.0,0.0,0.0,0.0,,,,,,,,,,,,76.36353240000608,77.81390540000575,1.4503729999996722,right,1.0,1.4419155000068713,None,1.0,54:46,1.0,,,,,,,,,,,,,Annie,1 - without skip,"54:46, 51:49","2.0s, 1.5s",2023-07-19_14h50.37.397,Rewa's Exp,2023.1.2,59.99649620587999,,1.0,None,right,1.4419155000068713
2.0,green,red,left,Countdown_2s.jpg,0.0,0.0,0.0,0.0,0.0,0.0,0.0,0.0,0.0,0.0,0.0,2.0,0.0,1.0,1.0,3.0,,,,,,,,,,,,81.79633300000569,83.5140517999971,1.7177187999914167,left,1.0,1.6974083999957656,None,2.0,54:46,1.0,,,,,,,,,,,,,Annie,1 - without skip,"54:46, 51:49","2.0s, 1.5s",2023-07-19_14h50.37.397,Rewa's Exp,2023.1.2,59.99649620587999,,1.0,None,left,1.6974083999957656
1.5,green,red,left,Countdown_1.5s.jpg,0.0,0.0,0.0,0.0,0.0,0.0,0.0,0.0,0.0,0.0,0.0,2.0,0.0,2.0,2.0,2.0,,,,,,,,,,,,87.46596590000263,88.41469309999957,0.948727199996938,right,0.0,0.9226328000077046,None,0.0,54:46,-2.0,,,,,,,,,,,,,Annie,1 - without skip,"54:46, 51:49","2.0s, 1.5s",2023-07-19_14h50.37.397,Rewa's Exp,2023.1.2,59.99649620587999,,0.0,None,right,0.9226328000077046
2.0,red,green,right,Countdown_2s.jpg,0.0,0.0,0.0,0.0,0.0,0.0,0.0,0.0,0.0,0.0,0.0,2.0,0.0,3.0,3.0,1.0,,,,,,,,,,,,92.35332280000148,93.74766269999964,1.3943398999981582,right,1.0,1.371096500006388,None,1.0,54:46,1.0,,,,,,,,,,,,,Annie,1 - without skip,"54:46, 51:49","2.0s, 1.5s",2023-07-19_14h50.37.397,Rewa's Exp,2023.1.2,59.99649620587999,,1.0,None,right,1.371096500006388
1.5,red,green,right,Countdown_1.5s.jpg,0.0,0.0,0.0,0.0,0.0,0.0,0.0,0.0,0.0,0.0,0.0,2.0,1.0,0.0,4.0,0.0,,,,,,,,,,,,97.71898130000044,98.5975194000057,0.8785381000052439,right,1.0,0.8526637000031769,None,2.0,54:46,1.0,,,,,,,,,,,,,Annie,1 - without skip,"54:46, 51:49","2.0s, 1.5s",2023-07-19_14h50.37.397,Rewa's Exp,2023.1.2,59.99649620587999,,1.0,None,right,0.8526637000031769
2.0,red,green,right,Countdown_2s.jpg,0.0,0.0,0.0,0.0,0.0,0.0,0.0,0.0,0.0,0.0,0.0,2.0,1.0,1.0,5.0,1.0,,,,,,,,,,,,102.52505930000916,103.89723539999976,1.372176099990611,right,1.0,1.3433540999976683,None,3.0,54:46,1.0,,,,,,,,,,,,,Annie,1 - without skip,"54:46, 51:49","2.0s, 1.5s",2023-07-19_14h50.37.397,Rewa's Exp,2023.1.2,59.99649620587999,,1.0,None,right,1.3433540999976683
1.5,green,red,left,Countdown_1.5s.jpg,0.0,0.0,0.0,0.0,0.0,0.0,0.0,0.0,0.0,0.0,0.0,2.0,1.0,2.0,6.0,2.0,,,,,,,,,,,,107.82054680000874,109.0805679000041,1.260021099995356,left,1.0,1.2308866000093983,None,4.0,54:46,1.0,,,,,,,,,,,,,Annie,1 - without skip,"54:46, 51:49","2.0s, 1.5s",2023-07-19_14h50.37.397,Rewa's Exp,2023.1.2,59.99649620587999,,1.0,None,left,1.2308866000093983
2.0,green,red,left,Countdown_2s.jpg,0.0,0.0,0.0,0.0,0.0,0.0,0.0,0.0,0.0,0.0,0.0,2.0,1.0,3.0,7.0,3.0,,,,,,,,,,,,112.99271540000336,114.69715619999624,1.7044407999928808,right,0.0,1.6840049000020372,None,2.0,54:46,-2.0,,,,,,,,,,,,,Annie,1 - without skip,"54:46, 51:49","2.0s, 1.5s",2023-07-19_14h50.37.397,Rewa's Exp,2023.1.2,59.99649620587999,,0.0,None,right,1.6840049000020372
2.0,red,green,right,Countdown_2s.jpg,0.0,0.0,0.0,0.0,0.0,0.0,0.0,0.0,0.0,0.0,0.0,2.0,,,,,0.0,0.0,0.0,1.0,,,,,,,,118.428846099996,120.0806991999998,1.651853100003791,,,,,3.0,51:49,1.0,right,1.0,1.6241920000029495,None,,,,,,,,,Annie,1 - without skip,"54:46, 51:49","2.0s, 1.5s",2023-07-19_14h50.37.397,Rewa's Exp,2023.1.2,59.99649620587999,,1.0,None,right,1.6241920000029495
1.5,green,red,left,Countdown_1.5s.jpg,0.0,0.0,0.0,0.0,0.0,0.0,0.0,0.0,0.0,0.0,0.0,2.0,,,,,0.0,1.0,1.0,2.0,,,,,,,,123.99962109999616,125.23044500000832,1.230823900012183,,,,,4.0,51:49,1.0,left,1.0,1.2136927999963518,None,,,,,,,,,Annie,1 - without skip,"54:46, 51:49","2.0s, 1.5s",2023-07-19_14h50.37.397,Rewa's Exp,2023.1.2,59.99649620587999,,1.0,None,left,1.2136927999963518
2.0,green,red,left,Countdown_2s.jpg,0.0,0.0,0.0,0.0,0.0,0.0,0.0,0.0,0.0,0.0,0.0,2.0,,,,,0.0,2.0,2.0,3.0,,,,,,,,129.172384400008,129.93355149999843,0.7611670999904163,,,,,2.0,51:49,-2.0,right,0.0,0.7367692000116222,None,,,,,,,,,Annie,1 - without skip,"54:46, 51:49","2.0s, 1.5s",2023-07-19_14h50.37.397,Rewa's Exp,2023.1.2,59.99649620587999,,0.0,None,right,0.7367692000116222
1.5,red,green,right,Countdown_1.5s.jpg,0.0,0.0,0.0,0.0,0.0,0.0,0.0,0.0,0.0,0.0,0.0,2.0,,,,,0.0,3.0,3.0,0.0,,,,,,,,133.88686549999693,134.9807879,1.0939224000030665,,,,,0.0,51:49,-2.0,left,0.0,1.069425499998033,None,,,,,,,,,Annie,1 - without skip,"54:46, 51:49","2.0s, 1.5s",2023-07-19_14h50.37.397,Rewa's Exp,2023.1.2,59.99649620587999,,0.0,None,left,1.069425499998033
1.5,green,red,left,Countdown_1.5s.jpg,0.0,0.0,0.0,0.0,0.0,0.0,0.0,0.0,0.0,0.0,0.0,2.0,,,,,1.0,0.0,4.0,2.0,,,,,,,,138.95794229999592,140.2137633999955,1.2558210999995936,,,,,1.0,51:49,1.0,left,1.0,1.23848280000675,None,,,,,,,,,Annie,1 - without skip,"54:46, 51:49","2.0s, 1.5s",2023-07-19_14h50.37.397,Rewa's Exp,2023.1.2,59.99649620587999,,1.0,None,left,1.23848280000675
2.0,green,red,left,Countdown_2s.jpg,0.0,0.0,0.0,0.0,0.0,0.0,0.0,0.0,0.0,0.0,0.0,2.0,,,,,1.0,1.0,5.0,3.0,,,,,,,,144.1197519999987,145.83102070000314,1.7112687000044389,,,,,2.0,51:49,1.0,left,1.0,1.6927548000094248,None,,,,,,,,,Annie,1 - without skip,"54:46, 51:49","2.0s, 1.5s",2023-07-19_14h50.37.397,Rewa's Exp,2023.1.2,59.99649620587999,,1.0,None,left,1.6927548000094248
1.5,red,green,right,Countdown_1.5s.jpg,0.0,0.0,0.0,0.0,0.0,0.0,0.0,0.0,0.0,0.0,0.0,2.0,,,,,1.0,2.0,6.0,0.0,,,,,,,,149.80904599999485,151.0474239000032,1.238377900008345,,,,,3.0,51:49,1.0,right,1.0,1.2116679000027943,None,,,,,,,,,Annie,1 - without skip,"54:46, 51:49","2.0s, 1.5s",2023-07-19_14h50.37.397,Rewa's Exp,2023.1.2,59.99649620587999,,1.0,None,right,1.2116679000027943
2.0,red,green,right,Countdown_2s.jpg,0.0,0.0,0.0,0.0,0.0,0.0,0.0,0.0,0.0,0.0,0.0,2.0,,,,,1.0,3.0,7.0,1.0,,,,,,,,154.96914450000622,156.5808398000081,1.611695300001884,,,,,4.0,51:49,1.0,right,1.0,1.5871163999981943,None,,,,,,,,,Annie,1 - without skip,"54:46, 51:49","2.0s, 1.5s",2023-07-19_14h50.37.397,Rewa's Exp,2023.1.2,59.99649620587999,,1.0,None,right,1.5871163999981943
1.5,red,green,right,Countdown_1.5s.jpg,1.0,0.0,1.0,0.0,0.0,0.0,0.0,0.0,0.0,0.0,0.0,2.0,0.0,0.0,0.0,0.0,,,,,,,,,,,,187.20028140000068,188.2471351999993,1.0468537999986438,right,1.0,1.0212518000043929,None,5.0,54:46,1.0,,,,,,,,,,,,,Annie,1 - without skip,"54:46, 51:49","2.0s, 1.5s",2023-07-19_14h50.37.397,Rewa's Exp,2023.1.2,59.99649620587999,,1.0,None,right,1.0212518000043929
1.5,green,red,left,Countdown_1.5s.jpg,1.0,0.0,1.0,0.0,0.0,0.0,0.0,0.0,0.0,0.0,0.0,2.0,0.0,1.0,1.0,2.0,,,,,,,,,,,,192.15379690000557,193.5807872000005,1.4269902999949409,right,0.0,1.394471200008411,None,3.0,54:46,-2.0,,,,,,,,,,,,,Annie,1 - without skip,"54:46, 51:49","2.0s, 1.5s",2023-07-19_14h50.37.397,Rewa's Exp,2023.1.2,59.99649620587999,,0.0,None,right,1.394471200008411
2.0,red,green,right,Countdown_2s.jpg,1.0,0.0,1.0,0.0,0.0,0.0,0.0,0.0,0.0,0.0,0.0,2.0,0.0,2.0,2.0,1.0,,,,,,,,,,,,197.50062140000227,198.81409990000247,1.3134785000002012,right,1.0,1.2886228000133997,None,4.0,54:46,1.0,,,,,,,,,,,,,Annie,1 - without skip,"54:46, 51:49","2.0s, 1.5s",2023-07-19_14h50.37.397,Rewa's Exp,2023.1.2,59.99649620587999,,1.0,None,right,1.2886228000133997
2.0,green,red,left,Countdown_2s.jpg,1.0,0.0,1.0,0.0,0.0,0.0,0.0,0.0,0.0,0.0,0.0,2.0,0.0,3.0,3.0,3.0,,,,,,,,,,,,202.8059471000015,204.49712090000685,1.691173800005345,left,1.0,1.662383000002592,None,5.0,54:46,1.0,,,,,,,,,,,,,Annie,1 - without skip,"54:46, 51:49","2.0s, 1.5s",2023-07-19_14h50.37.397,Rewa's Exp,2023.1.2,59.99649620587999,,1.0,None,left,1.662383000002592
1.5,green,red,left,Countdown_1.5s.jpg,1.0,0.0,1.0,0.0,0.0,0.0,0.0,0.0,0.0,0.0,0.0,2.0,1.0,0.0,4.0,2.0,,,,,,,,,,,,208.4602603000094,209.84710630000336,1.386845999993966,left,1.0,1.3604139999952167,None,6.0,54:46,1.0,,,,,,,,,,,,,Annie,1 - without skip,"54:46, 51:49","2.0s, 1.5s",2023-07-19_14h50.37.397,Rewa's Exp,2023.1.2,59.99649620587999,,1.0,None,left,1.3604139999952167
1.5,red,green,right,Countdown_1.5s.jpg,1.0,0.0,1.0,0.0,0.0,0.0,0.0,0.0,0.0,0.0,0.0,2.0,1.0,1.0,5.0,0.0,,,,,,,,,,,,213.7803353000054,214.6766728000075,0.8963375000021188,right,1.0,0.8552043000090634,None,7.0,54:46,1.0,,,,,,,,,,,,,Annie,1 - without skip,"54:46, 51:49","2.0s, 1.5s",2023-07-19_14h50.37.397,Rewa's Exp,2023.1.2,59.99649620587999,,1.0,None,right,0.8552043000090634
2.0,green,red,left,Countdown_2s.jpg,1.0,0.0,1.0,0.0,0.0,0.0,0.0,0.0,0.0,0.0,0.0,2.0,1.0,2.0,6.0,3.0,,,,,,,,,,,,218.5814348999993,220.29741410000133,1.7159792000020389,right,0.0,1.6861396000022069,None,5.0,54:46,-2.0,,,,,,,,,,,,,Annie,1 - without skip,"54:46, 51:49","2.0s, 1.5s",2023-07-19_14h50.37.397,Rewa's Exp,2023.1.2,59.99649620587999,,0.0,None,right,1.6861396000022069
2.0,red,green,right,Countdown_2s.jpg,1.0,0.0,1.0,0.0,0.0,0.0,0.0,0.0,0.0,0.0,0.0,2.0,1.0,3.0,7.0,1.0,,,,,,,,,,,,224.27865370000652,225.6471421000024,1.3684883999958402,left,0.0,1.342422900008387,None,3.0,54:46,-2.0,,,,,,,,,,,,,Annie,1 - without skip,"54:46, 51:49","2.0s, 1.5s",2023-07-19_14h50.37.397,Rewa's Exp,2023.1.2,59.99649620587999,,0.0,None,left,1.342422900008387
2.0,red,green,right,Countdown_2s.jpg,1.0,0.0,1.0,0.0,0.0,0.0,0.0,0.0,0.0,0.0,0.0,2.0,,,,,0.0,0.0,0.0,1.0,,,,,,,,229.56484320000163,230.84717039999668,1.282327199995052,,,,,4.0,51:49,1.0,right,1.0,1.2554485000000568,None,,,,,,,,,Annie,1 - without skip,"54:46, 51:49","2.0s, 1.5s",2023-07-19_14h50.37.397,Rewa's Exp,2023.1.2,59.99649620587999,,1.0,None,right,1.2554485000000568
1.5,green,red,left,Countdown_1.5s.jpg,1.0,0.0,1.0,0.0,0.0,0.0,0.0,0.0,0.0,0.0,0.0,2.0,,,,,0.0,1.0,1.0,2.0,,,,,,,,234.7481832000049,236.0138316000084,1.2656484000035562,,,,,2.0,51:49,-2.0,right,0.0,1.2483202000003075,None,,,,,,,,,Annie,1 - without skip,"54:46, 51:49","2.0s, 1.5s",2023-07-19_14h50.37.397,Rewa's Exp,2023.1.2,59.99649620587999,,0.0,None,right,1.2483202000003075
2.0,green,red,left,Countdown_2s.jpg,1.0,0.0,1.0,0.0,0.0,0.0,0.0,0.0,0.0,0.0,0.0,2.0,,,,,0.0,2.0,2.0,3.0,,,,,,,,239.9092781000072,241.56382759999545,1.6545494999882069,,,,,3.0,51:49,1.0,left,1.0,1.622935899998993,None,,,,,,,,,Annie,1 - without skip,"54:46, 51:49","2.0s, 1.5s",2023-07-19_14h50.37.397,Rewa's Exp,2023.1.2,59.99649620587999,,1.0,None,left,1.622935899998993
1.5,red,green,right,Countdown_1.5s.jpg,1.0,0.0,1.0,0.0,0.0,0.0,0.0,0.0,0.0,0.0,0.0,2.0,,,,,0.0,3.0,3.0,0.0,,,,,,,,245.47807009999812,246.59732080000688,1.1192507000087062,,,,,4.0,51:49,1.0,right,1.0,1.1032426000019768,None,,,,,,,,,Annie,1 - without skip,"54:46, 51:49","2.0s, 1.5s",2023-07-19_14h50.37.397,Rewa's Exp,2023.1.2,59.99649620587999,,1.0,None,right,1.1032426000019768
1.5,red,green,right,Countdown_1.5s.jpg,1.0,0.0,1.0,0.0,0.0,0.0,0.0,0.0,0.0,0.0,0.0,2.0,,,,,1.0,0.0,4.0,0.0,,,,,,,,250.5092639000068,251.93058960000053,1.4213256999937585,,,,,2.0,51:49,-2.0,left,0.0,1.3980098000029102,None,,,,,,,,,Annie,1 - without skip,"54:46, 51:49","2.0s, 1.5s",2023-07-19_14h50.37.397,Rewa's Exp,2023.1.2,59.99649620587999,,0.0,None,left,1.3980098000029102
1.5,green,red,left,Countdown_1.5s.jpg,1.0,0.0,1.0,0.0,0.0,0.0,0.0,0.0,0.0,0.0,0.0,2.0,,,,,1.0,1.0,5.0,2.0,,,,,,,,255.837614899996,257.2804103999952,1.4427954999991923,,,,,0.0,51:49,-2.0,right,0.0,1.4235164999990957,None,,,,,,,,,Annie,1 - without skip,"54:46, 51:49","2.0s, 1.5s",2023-07-19_14h50.37.397,Rewa's Exp,2023.1.2,59.99649620587999,,0.0,None,right,1.4235164999990957
2.0,red,green,right,Countdown_2s.jpg,1.0,0.0,1.0,0.0,0.0,0.0,0.0,0.0,0.0,0.0,0.0,2.0,,,,,1.0,2.0,6.0,1.0,,,,,,,,261.1898242000025,262.16374790000555,0.9739237000030698,,,,,-2.0,51:49,-2.0,left,0.0,0.9414355000044452,None,,,,,,,,,Annie,1 - without skip,"54:46, 51:49","2.0s, 1.5s",2023-07-19_14h50.37.397,Rewa's Exp,2023.1.2,59.99649620587999,,0.0,None,left,0.9414355000044452
2.0,green,red,left,Countdown_2s.jpg,1.0,0.0,1.0,0.0,0.0,0.0,0.0,0.0,0.0,0.0,0.0,2.0,,,,,1.0,3.0,7.0,3.0,,,,,,,,266.11705549999897,267.18036690000736,1.063311400008388,,,,,-4.0,51:49,-2.0,right,0.0,1.0393167000001995,None,,,,,,,,,Annie,1 - without skip,"54:46, 51:49","2.0s, 1.5s",2023-07-19_14h50.37.397,Rewa's Exp,2023.1.2,59.99649620587999,,0.0,None,right,1.0393167000001995
1.5,green,red,left,Countdown_1.5s.jpg,2.0,0.0,2.0,0.0,0.0,0.0,0.0,0.0,0.0,0.0,0.0,2.0,0.0,0.0,0.0,2.0,,,,,,,,,,,,273.7597286000091,274.6142089000059,0.8544802999967942,right,0.0,0.828979400001117,None,-6.0,54:46,-2.0,,,,,,,,,,,,,Annie,1 - without skip,"54:46, 51:49","2.0s, 1.5s",2023-07-19_14h50.37.397,Rewa's Exp,2023.1.2,59.99649620587999,,0.0,None,right,0.828979400001117
1.5,red,green,right,Countdown_1.5s.jpg,2.0,0.0,2.0,0.0,0.0,0.0,0.0,0.0,0.0,0.0,0.0,2.0,0.0,1.0,1.0,0.0,,,,,,,,,,,,278.5196905000048,279.9473929999949,1.427702499990119,left,0.0,1.39618860000337,None,-8.0,54:46,-2.0,,,,,,,,,,,,,Annie,1 - without skip,"54:46, 51:49","2.0s, 1.5s",2023-07-19_14h50.37.397,Rewa's Exp,2023.1.2,59.99649620587999,,0.0,None,left,1.39618860000337
2.0,red,green,right,Countdown_2s.jpg,2.0,0.0,2.0,0.0,0.0,0.0,0.0,0.0,0.0,0.0,0.0,2.0,0.0,2.0,2.0,1.0,,,,,,,,,,,,283.8188674999983,285.44924600000377,1.6303785000054631,right,1.0,1.593598599996767,None,-7.0,54:46,1.0,,,,,,,,,,,,,Annie,1 - without skip,"54:46, 51:49","2.0s, 1.5s",2023-07-19_14h50.37.397,Rewa's Exp,2023.1.2,59.99649620587999,,1.0,None,right,1.593598599996767
2.0,green,red,left,Countdown_2s.jpg,2.0,0.0,2.0,0.0,0.0,0.0,0.0,0.0,0.0,0.0,0.0,2.0,0.0,3.0,3.0,3.0,,,,,,,,,,,,289.37151040000026,290.8472466999956,1.475736299995333,left,1.0,1.448913900007028,None,-6.0,54:46,1.0,,,,,,,,,,,,,Annie,1 - without skip,"54:46, 51:49","2.0s, 1.5s",2023-07-19_14h50.37.397,Rewa's Exp,2023.1.2,59.99649620587999,,1.0,None,left,1.448913900007028
1.5,green,red,left,Countdown_1.5s.jpg,2.0,0.0,2.0,0.0,0.0,0.0,0.0,0.0,0.0,0.0,0.0,2.0,1.0,0.0,4.0,2.0,,,,,,,,,,,,294.80423470000096,296.1636684999976,1.3594337999966228,left,1.0,1.326760900003137,None,-5.0,54:46,1.0,,,,,,,,,,,,,Annie,1 - without skip,"54:46, 51:49","2.0s, 1.5s",2023-07-19_14h50.37.397,Rewa's Exp,2023.1.2,59.99649620587999,,1.0,None,left,1.326760900003137
2.0,green,red,left,Countdown_2s.jpg,2.0,0.0,2.0,0.0,0.0,0.0,0.0,0.0,0.0,0.0,0.0,2.0,1.0,1.0,5.0,3.0,,,,,,,,,,,,300.08102890000737,301.4137119000079,1.332683000000543,left,1.0,1.308114100000239,None,-4.0,54:46,1.0,,,,,,,,,,,,,Annie,1 - without skip,"54:46, 51:49","2.0s, 1.5s",2023-07-19_14h50.37.397,Rewa's Exp,2023.1.2,59.99649620587999,,1.0,None,left,1.308114100000239
1.5,red,green,right,Countdown_1.5s.jpg,2.0,0.0,2.0,0.0,0.0,0.0,0.0,0.0,0.0,0.0,0.0,2.0,1.0,2.0,6.0,0.0,,,,,,,,,,,,305.31943420000607,306.1477556000027,0.8283213999966392,right,1.0,0.8036851000069873,None,-3.0,54:46,1.0,,,,,,,,,,,,,Annie,1 - without skip,"54:46, 51:49","2.0s, 1.5s",2023-07-19_14h50.37.397,Rewa's Exp,2023.1.2,59.99649620587999,,1.0,None,right,0.8036851000069873
2.0,red,green,right,Countdown_2s.jpg,2.0,0.0,2.0,0.0,0.0,0.0,0.0,0.0,0.0,0.0,0.0,2.0,1.0,3.0,7.0,1.0,,,,,,,,,,,,310.1118761999969,311.9639360000001,1.8520598000031896,right,1.0,1.819786400010344,None,-2.0,54:46,1.0,,,,,,,,,,,,,Annie,1 - without skip,"54:46, 51:49","2.0s, 1.5s",2023-07-19_14h50.37.397,Rewa's Exp,2023.1.2,59.99649620587999,,1.0,None,right,1.819786400010344
2.0,red,green,right,Countdown_2s.jpg,2.0,0.0,2.0,0.0,0.0,0.0,0.0,0.0,0.0,0.0,0.0,2.0,,,,,0.0,0.0,0.0,1.0,,,,,,,,315.91307910000614,317.5469239000085,1.6338448000024073,,,,,-4.0,51:49,-2.0,left,0.0,1.6104344000050332,None,,,,,,,,,Annie,1 - without skip,"54:46, 51:49","2.0s, 1.5s",2023-07-19_14h50.37.397,Rewa's Exp,2023.1.2,59.99649620587999,,0.0,None,left,1.6104344000050332
2.0,green,red,left,Countdown_2s.jpg,2.0,0.0,2.0,0.0,0.0,0.0,0.0,0.0,0.0,0.0,0.0,2.0,,,,,0.0,1.0,1.0,3.0,,,,,,,,321.45966639999824,322.5308507000009,1.071184300002642,,,,,-3.0,51:49,1.0,left,1.0,1.040188600003603,None,,,,,,,,,Annie,1 - without skip,"54:46, 51:49","2.0s, 1.5s",2023-07-19_14h50.37.397,Rewa's Exp,2023.1.2,59.99649620587999,,1.0,None,left,1.040188600003603
1.5,red,green,right,Countdown_1.5s.jpg,2.0,0.0,2.0,0.0,0.0,0.0,0.0,0.0,0.0,0.0,0.0,2.0,,,,,0.0,2.0,2.0,0.0,,,,,,,,326.4524212999968,327.64742580000893,1.1950045000121463,,,,,-2.0,51:49,1.0,right,1.0,1.1668061000091257,None,,,,,,,,,Annie,1 - without skip,"54:46, 51:49","2.0s, 1.5s",2023-07-19_14h50.37.397,Rewa's Exp,2023.1.2,59.99649620587999,,1.0,None,right,1.1668061000091257
1.5,green,red,left,Countdown_1.5s.jpg,2.0,0.0,2.0,0.0,0.0,0.0,0.0,0.0,0.0,0.0,0.0,2.0,,,,,0.0,3.0,3.0,2.0,,,,,,,,331.5852328000037,332.8975296999997,1.3122968999959994,,,,,-1.0,51:49,1.0,left,1.0,1.2912225000036417,None,,,,,,,,,Annie,1 - without skip,"54:46, 51:49","2.0s, 1.5s",2023-07-19_14h50.37.397,Rewa's Exp,2023.1.2,59.99649620587999,,1.0,None,left,1.2912225000036417
2.0,green,red,left,Countdown_2s.jpg,2.0,0.0,2.0,0.0,0.0,0.0,0.0,0.0,0.0,0.0,0.0,2.0,,,,,1.0,0.0,4.0,3.0,,,,,,,,336.8508780999982,338.33241909999924,1.481541000001016,,,,,0.0,51:49,1.0,left,1.0,1.4483220999973128,None,,,,,,,,,Annie,1 - without skip,"54:46, 51:49","2.0s, 1.5s",2023-07-19_14h50.37.397,Rewa's Exp,2023.1.2,59.99649620587999,,1.0,None,left,1.4483220999973128
1.5,red,green,right,Countdown_1.5s.jpg,2.0,0.0,2.0,0.0,0.0,0.0,0.0,0.0,0.0,0.0,0.0,2.0,,,,,1.0,1.0,5.0,0.0,,,,,,,,342.2325332000037,343.33047090000764,1.0979377000039676,,,,,1.0,51:49,1.0,right,1.0,1.0745699999970384,None,,,,,,,,,Annie,1 - without skip,"54:46, 51:49","2.0s, 1.5s",2023-07-19_14h50.37.397,Rewa's Exp,2023.1.2,59.99649620587999,,1.0,None,right,1.0745699999970384
1.5,green,red,left,Countdown_1.5s.jpg,2.0,0.0,2.0,0.0,0.0,0.0,0.0,0.0,0.0,0.0,0.0,2.0,,,,,1.0,2.0,6.0,2.0,,,,,,,,347.2188310000056,348.5136171000049,1.294786099999328,,,,,2.0,51:49,1.0,left,1.0,1.2725651000073412,None,,,,,,,,,Annie,1 - without skip,"54:46, 51:49","2.0s, 1.5s",2023-07-19_14h50.37.397,Rewa's Exp,2023.1.2,59.99649620587999,,1.0,None,left,1.2725651000073412
2.0,red,green,right,Countdown_2s.jpg,2.0,0.0,2.0,0.0,0.0,0.0,0.0,0.0,0.0,0.0,0.0,2.0,,,,,1.0,3.0,7.0,1.0,,,,,,,,352.45636860000377,353.5971473999962,1.140778799992404,,,,,3.0,51:49,1.0,right,1.0,1.1232986000104574,None,,,,,,,,,Annie,1 - without skip,"54:46, 51:49","2.0s, 1.5s",2023-07-19_14h50.37.397,Rewa's Exp,2023.1.2,59.99649620587999,,1.0,None,right,1.1232986000104574
1.5,red,green,right,Countdown_1.5s.jpg,3.0,0.0,3.0,0.0,0.0,0.0,0.0,0.0,0.0,0.0,0.0,3.0,0.0,0.0,0.0,0.0,,,,,,,,,,,,359.6243121000007,360.7471872000024,1.1228751000016928,right,1.0,1.099565900003654,None,4.0,54:46,1.0,,,,,,,,,,,,,Annie,1 - without skip,"54:46, 51:49","2.0s, 1.5s",2023-07-19_14h50.37.397,Rewa's Exp,2023.1.2,59.99649620587999,,1.0,None,right,1.099565900003654
2.0,green,red,left,Countdown_2s.jpg,3.0,0.0,3.0,0.0,0.0,0.0,0.0,0.0,0.0,0.0,0.0,3.0,0.0,1.0,1.0,3.0,,,,,,,,,,,,364.683955600005,366.2803704999969,1.5964148999919416,right,0.0,1.5679334000014933,None,2.0,54:46,-2.0,,,,,,,,,,,,,Annie,1 - without skip,"54:46, 51:49","2.0s, 1.5s",2023-07-19_14h50.37.397,Rewa's Exp,2023.1.2,59.99649620587999,,0.0,None,right,1.5679334000014933
2.0,red,green,right,Countdown_2s.jpg,3.0,0.0,3.0,0.0,0.0,0.0,0.0,0.0,0.0,0.0,0.0,3.0,0.0,2.0,2.0,1.0,,,,,,,,,,,,370.244271100004,371.2468836000044,1.0026125000003958,right,1.0,0.975423399999272,None,3.0,54:46,1.0,,,,,,,,,,,,,Annie,1 - without skip,"54:46, 51:49","2.0s, 1.5s",2023-07-19_14h50.37.397,Rewa's Exp,2023.1.2,59.99649620587999,,1.0,None,right,0.975423399999272
1.5,green,red,left,Countdown_1.5s.jpg,3.0,0.0,3.0,0.0,0.0,0.0,0.0,0.0,0.0,0.0,0.0,3.0,0.0,3.0,3.0,2.0,,,,,,,,,,,,375.1733986000036,376.2802775000018,1.1068788999982644,left,1.0,1.0873143000062555,None,4.0,54:46,1.0,,,,,,,,,,,,,Annie,1 - without skip,"54:46, 51:49","2.0s, 1.5s",2023-07-19_14h50.37.397,Rewa's Exp,2023.1.2,59.99649620587999,,1.0,None,left,1.0873143000062555
2.0,green,red,left,Countdown_2s.jpg,3.0,0.0,3.0,0.0,0.0,0.0,0.0,0.0,0.0,0.0,0.0,3.0,1.0,0.0,4.0,3.0,,,,,,,,,,,,380.2239635000005,381.8970896999963,1.6731261999957496,left,1.0,1.6434561000060055,None,5.0,54:46,1.0,,,,,,,,,,,,,Annie,1 - without skip,"54:46, 51:49","2.0s, 1.5s",2023-07-19_14h50.37.397,Rewa's Exp,2023.1.2,59.99649620587999,,1.0,None,left,1.6434561000060055
2.0,red,green,right,Countdown_2s.jpg,3.0,0.0,3.0,0.0,0.0,0.0,0.0,0.0,0.0,0.0,0.0,3.0,1.0,1.0,5.0,1.0,,,,,,,,,,,,385.8717995000043,386.9969723999966,1.1251728999923216,right,1.0,1.1085985000099754,None,6.0,54:46,1.0,,,,,,,,,,,,,Annie,1 - without skip,"54:46, 51:49","2.0s, 1.5s",2023-07-19_14h50.37.397,Rewa's Exp,2023.1.2,59.99649620587999,,1.0,None,right,1.1085985000099754
1.5,green,red,left,Countdown_1.5s.jpg,3.0,0.0,3.0,0.0,0.0,0.0,0.0,0.0,0.0,0.0,0.0,3.0,1.0,2.0,6.0,2.0,,,,,,,,,,,,390.8830353000085,391.73436370000127,0.8513283999927808,left,1.0,0.8241008000040893,None,7.0,54:46,1.0,,,,,,,,,,,,,Annie,1 - without skip,"54:46, 51:49","2.0s, 1.5s",2023-07-19_14h50.37.397,Rewa's Exp,2023.1.2,59.99649620587999,,1.0,None,left,0.8241008000040893
1.5,red,green,right,Countdown_1.5s.jpg,3.0,0.0,3.0,0.0,0.0,0.0,0.0,0.0,0.0,0.0,0.0,3.0,1.0,3.0,7.0,0.0,,,,,,,,,,,,395.64180840000336,396.41402070000186,0.7722122999985004,right,1.0,0.7461409999959869,None,8.0,54:46,1.0,,,,,,,,,,,,,Annie,1 - without skip,"54:46, 51:49","2.0s, 1.5s",2023-07-19_14h50.37.397,Rewa's Exp,2023.1.2,59.99649620587999,,1.0,None,right,0.7461409999959869
2.0,green,red,left,Countdown_2s.jpg,3.0,0.0,3.0,0.0,0.0,0.0,0.0,0.0,0.0,0.0,0.0,3.0,,,,,0.0,0.0,0.0,3.0,,,,,,,,400.3517382999999,401.5471994999971,1.1954611999972258,,,,,9.0,51:49,1.0,left,1.0,1.1637572000036016,None,,,,,,,,,Annie,1 - without skip,"54:46, 51:49","2.0s, 1.5s",2023-07-19_14h50.37.397,Rewa's Exp,2023.1.2,59.99649620587999,,1.0,None,left,1.1637572000036016
1.5,red,green,right,Countdown_1.5s.jpg,3.0,0.0,3.0,0.0,0.0,0.0,0.0,0.0,0.0,0.0,0.0,3.0,,,,,0.0,1.0,1.0,0.0,,,,,,,,405.5173923999973,406.730378200009,1.2129858000116656,,,,,10.0,51:49,1.0,right,1.0,1.1819262000062736,None,,,,,,,,,Annie,1 - without skip,"54:46, 51:49","2.0s, 1.5s",2023-07-19_14h50.37.397,Rewa's Exp,2023.1.2,59.99649620587999,,1.0,None,right,1.1819262000062736
2.0,red,green,right,Countdown_2s.jpg,3.0,0.0,3.0,0.0,0.0,0.0,0.0,0.0,0.0,0.0,0.0,3.0,,,,,0.0,2.0,2.0,1.0,,,,,,,,410.6284788000048,411.7969286000007,1.1684497999958694,,,,,11.0,51:49,1.0,right,1.0,1.1440815999958431,None,,,,,,,,,Annie,1 - without skip,"54:46, 51:49","2.0s, 1.5s",2023-07-19_14h50.37.397,Rewa's Exp,2023.1.2,59.99649620587999,,1.0,None,right,1.1440815999958431
1.5,green,red,left,Countdown_1.5s.jpg,3.0,0.0,3.0,0.0,0.0,0.0,0.0,0.0,0.0,0.0,0.0,3.0,,,,,0.0,3.0,3.0,2.0,,,,,,,,415.70191350000096,416.8804552000074,1.1785417000064626,,,,,12.0,51:49,1.0,left,1.0,1.157974200003082,None,,,,,,,,,Annie,1 - without skip,"54:46, 51:49","2.0s, 1.5s",2023-07-19_14h50.37.397,Rewa's Exp,2023.1.2,59.99649620587999,,1.0,None,left,1.157974200003082
2.0,red,green,right,Countdown_2s.jpg,3.0,0.0,3.0,0.0,0.0,0.0,0.0,0.0,0.0,0.0,0.0,3.0,,,,,1.0,0.0,4.0,1.0,,,,,,,,420.7750100999983,422.41375780000817,1.6387477000098445,,,,,13.0,51:49,1.0,right,1.0,1.6118232000007993,None,,,,,,,,,Annie,1 - without skip,"54:46, 51:49","2.0s, 1.5s",2023-07-19_14h50.37.397,Rewa's Exp,2023.1.2,59.99649620587999,,1.0,None,right,1.6118232000007993
1.5,green,red,left,Countdown_1.5s.jpg,3.0,0.0,3.0,0.0,0.0,0.0,0.0,0.0,0.0,0.0,0.0,3.0,,,,,1.0,1.0,5.0,2.0,,,,,,,,426.3261058000062,427.646802800009,1.3206970000028375,,,,,11.0,51:49,-2.0,right,0.0,1.301303200016264,None,,,,,,,,,Annie,1 - without skip,"54:46, 51:49","2.0s, 1.5s",2023-07-19_14h50.37.397,Rewa's Exp,2023.1.2,59.99649620587999,,0.0,None,right,1.301303200016264
2.0,green,red,left,Countdown_2s.jpg,3.0,0.0,3.0,0.0,0.0,0.0,0.0,0.0,0.0,0.0,0.0,3.0,,,,,1.0,2.0,6.0,3.0,,,,,,,,431.5446865999984,433.1469543999992,1.6022678000008457,,,,,9.0,51:49,-2.0,right,0.0,1.5787630999984683,None,,,,,,,,,Annie,1 - without skip,"54:46, 51:49","2.0s, 1.5s",2023-07-19_14h50.37.397,Rewa's Exp,2023.1.2,59.99649620587999,,0.0,None,right,1.5787630999984683
1.5,red,green,right,Countdown_1.5s.jpg,3.0,0.0,3.0,0.0,0.0,0.0,0.0,0.0,0.0,0.0,0.0,3.0,,,,,1.0,3.0,7.0,0.0,,,,,,,,437.0590645000048,438.18047829999705,1.1214137999922968,,,,,7.0,51:49,-2.0,left,0.0,1.0885009999910835,None,,,,,,,,,Annie,1 - without skip,"54:46, 51:49","2.0s, 1.5s",2023-07-19_14h50.37.397,Rewa's Exp,2023.1.2,59.99649620587999,,0.0,None,left,1.0885009999910835
2.0,green,red,left,Countdown_2s.jpg,4.0,0.0,4.0,0.0,0.0,0.0,0.0,1.0,0.0,0.0,0.0,0.0,0.0,0.0,0.0,3.0,,,,,,,,,,,,444.6282529000018,445.6803566000017,1.0521036999998614,left,1.0,1.0312148999946658,None,8.0,54:46,1.0,,,,,,,,,,,,,Annie,1 - without skip,"54:46, 51:49","2.0s, 1.5s",2023-07-19_14h50.37.397,Rewa's Exp,2023.1.2,59.99649620587999,,1.0,None,left,1.0312148999946658
2.0,red,green,right,Countdown_2s.jpg,4.0,0.0,4.0,0.0,0.0,0.0,0.0,1.0,0.0,0.0,0.0,0.0,0.0,1.0,1.0,1.0,,,,,,,,,,,,449.6135012000013,451.1138015000033,1.5003003000019817,right,1.0,1.4703029000083916,None,9.0,54:46,1.0,,,,,,,,,,,,,Annie,1 - without skip,"54:46, 51:49","2.0s, 1.5s",2023-07-19_14h50.37.397,Rewa's Exp,2023.1.2,59.99649620587999,,1.0,None,right,1.4703029000083916
1.5,red,green,right,Countdown_1.5s.jpg,4.0,0.0,4.0,0.0,0.0,0.0,0.0,1.0,0.0,0.0,0.0,0.0,0.0,2.0,2.0,0.0,,,,,,,,,,,,455.0159213000006,456.3468817999965,1.3309604999958538,right,1.0,1.308325200006948,None,10.0,54:46,1.0,,,,,,,,,,,,,Annie,1 - without skip,"54:46, 51:49","2.0s, 1.5s",2023-07-19_14h50.37.397,Rewa's Exp,2023.1.2,59.99649620587999,,1.0,None,right,1.308325200006948
1.5,green,red,left,Countdown_1.5s.jpg,4.0,0.0,4.0,0.0,0.0,0.0,0.0,1.0,0.0,0.0,0.0,0.0,0.0,3.0,3.0,2.0,,,,,,,,,,,,460.28474350000033,461.48044690000825,1.1957034000079148,right,0.0,1.17513920001511,None,8.0,54:46,-2.0,,,,,,,,,,,,,Annie,1 - without skip,"54:46, 51:49","2.0s, 1.5s",2023-07-19_14h50.37.397,Rewa's Exp,2023.1.2,59.99649620587999,,0.0,None,right,1.17513920001511
2.0,green,red,left,Countdown_2s.jpg,4.0,0.0,4.0,0.0,0.0,0.0,0.0,1.0,0.0,0.0,0.0,0.0,1.0,0.0,4.0,3.0,,,,,,,,,,,,465.4522847000044,467.0634785000002,1.6111937999958172,left,1.0,1.5827255000040168,None,9.0,54:46,1.0,,,,,,,,,,,,,Annie,1 - without skip,"54:46, 51:49","2.0s, 1.5s",2023-07-19_14h50.37.397,Rewa's Exp,2023.1.2,59.99649620587999,,1.0,None,left,1.5827255000040168
2.0,red,green,right,Countdown_2s.jpg,4.0,0.0,4.0,0.0,0.0,0.0,0.0,1.0,0.0,0.0,0.0,0.0,1.0,1.0,5.0,1.0,,,,,,,,,,,,471.0099837000016,472.3976461999992,1.387662499997532,right,1.0,1.3542994000017643,None,10.0,54:46,1.0,,,,,,,,,,,,,Annie,1 - without skip,"54:46, 51:49","2.0s, 1.5s",2023-07-19_14h50.37.397,Rewa's Exp,2023.1.2,59.99649620587999,,1.0,None,right,1.3542994000017643
1.5,green,red,left,Countdown_1.5s.jpg,4.0,0.0,4.0,0.0,0.0,0.0,0.0,1.0,0.0,0.0,0.0,0.0,1.0,2.0,6.0,2.0,,,,,,,,,,,,476.3287393000064,477.1638050000038,0.835065699997358,right,0.0,0.8027280999958748,None,8.0,54:46,-2.0,,,,,,,,,,,,,Annie,1 - without skip,"54:46, 51:49","2.0s, 1.5s",2023-07-19_14h50.37.397,Rewa's Exp,2023.1.2,59.99649620587999,,0.0,None,right,0.8027280999958748
1.5,red,green,right,Countdown_1.5s.jpg,4.0,0.0,4.0,0.0,0.0,0.0,0.0,1.0,0.0,0.0,0.0,0.0,1.0,3.0,7.0,0.0,,,,,,,,,,,,481.0823260000034,481.8636613999988,0.7813353999954415,right,1.0,0.7535543999983929,None,9.0,54:46,1.0,,,,,,,,,,,,,Annie,1 - without skip,"54:46, 51:49","2.0s, 1.5s",2023-07-19_14h50.37.397,Rewa's Exp,2023.1.2,59.99649620587999,,1.0,None,right,0.7535543999983929
2.0,green,red,left,Countdown_2s.jpg,4.0,0.0,4.0,0.0,0.0,0.0,0.0,1.0,0.0,0.0,0.0,0.0,,,,,0.0,0.0,0.0,3.0,,,,,,,,485.7801003000058,487.2161199999973,1.436019699991448,,,,,10.0,51:49,1.0,left,1.0,1.4159199000132503,None,,,,,,,,,Annie,1 - without skip,"54:46, 51:49","2.0s, 1.5s",2023-07-19_14h50.37.397,Rewa's Exp,2023.1.2,59.99649620587999,,1.0,None,left,1.4159199000132503
2.0,red,green,right,Countdown_2s.jpg,4.0,0.0,4.0,0.0,0.0,0.0,0.0,1.0,0.0,0.0,0.0,0.0,,,,,0.0,1.0,1.0,1.0,,,,,,,,491.1696001000091,492.6807764999976,1.5111763999884715,,,,,8.0,51:49,-2.0,left,0.0,1.4814943999954266,None,,,,,,,,,Annie,1 - without skip,"54:46, 51:49","2.0s, 1.5s",2023-07-19_14h50.37.397,Rewa's Exp,2023.1.2,59.99649620587999,,0.0,None,left,1.4814943999954266
1.5,red,green,right,Countdown_1.5s.jpg,4.0,0.0,4.0,0.0,0.0,0.0,0.0,1.0,0.0,0.0,0.0,0.0,,,,,0.0,2.0,2.0,0.0,,,,,,,,496.6056463999994,497.5303227999975,0.924676399998134,,,,,9.0,51:49,1.0,right,1.0,0.8935831999988295,None,,,,,,,,,Annie,1 - without skip,"54:46, 51:49","2.0s, 1.5s",2023-07-19_14h50.37.397,Rewa's Exp,2023.1.2,59.99649620587999,,1.0,None,right,0.8935831999988295
1.5,green,red,left,Countdown_1.5s.jpg,4.0,0.0,4.0,0.0,0.0,0.0,0.0,1.0,0.0,0.0,0.0,0.0,,,,,0.0,3.0,3.0,2.0,,,,,,,,501.4411822999973,502.68011560000014,1.2389333000028273,,,,,10.0,51:49,1.0,left,1.0,1.2098853000061354,None,,,,,,,,,Annie,1 - without skip,"54:46, 51:49","2.0s, 1.5s",2023-07-19_14h50.37.397,Rewa's Exp,2023.1.2,59.99649620587999,,1.0,None,left,1.2098853000061354
2.0,green,red,left,Countdown_2s.jpg,4.0,0.0,4.0,0.0,0.0,0.0,0.0,1.0,0.0,0.0,0.0,0.0,,,,,1.0,0.0,4.0,3.0,,,,,,,,506.6188286999968,508.29661649999616,1.677787799999351,,,,,8.0,51:49,-2.0,right,0.0,1.6573185000015656,None,,,,,,,,,Annie,1 - without skip,"54:46, 51:49","2.0s, 1.5s",2023-07-19_14h50.37.397,Rewa's Exp,2023.1.2,59.99649620587999,,0.0,None,right,1.6573185000015656
1.5,red,green,right,Countdown_1.5s.jpg,4.0,0.0,4.0,0.0,0.0,0.0,0.0,1.0,0.0,0.0,0.0,0.0,,,,,1.0,1.0,5.0,0.0,,,,,,,,512.2159037000092,513.3803794999985,1.1644757999893045,,,,,9.0,51:49,1.0,right,1.0,1.1329246999957832,None,,,,,,,,,Annie,1 - without skip,"54:46, 51:49","2.0s, 1.5s",2023-07-19_14h50.37.397,Rewa's Exp,2023.1.2,59.99649620587999,,1.0,None,right,1.1329246999957832
2.0,red,green,right,Countdown_2s.jpg,4.0,0.0,4.0,0.0,0.0,0.0,0.0,1.0,0.0,0.0,0.0,0.0,,,,,1.0,2.0,6.0,1.0,,,,,,,,517.3165623999957,518.9137031999999,1.5971408000041265,,,,,10.0,51:49,1.0,right,1.0,1.566645400002017,None,,,,,,,,,Annie,1 - without skip,"54:46, 51:49","2.0s, 1.5s",2023-07-19_14h50.37.397,Rewa's Exp,2023.1.2,59.99649620587999,,1.0,None,right,1.566645400002017
1.5,green,red,left,Countdown_1.5s.jpg,4.0,0.0,4.0,0.0,0.0,0.0,0.0,1.0,0.0,0.0,0.0,0.0,,,,,1.0,3.0,7.0,2.0,,,,,,,,522.8212809999968,523.9978433000069,1.1765623000101186,,,,,11.0,51:49,1.0,left,1.0,1.150438299999223,None,,,,,,,,,Annie,1 - without skip,"54:46, 51:49","2.0s, 1.5s",2023-07-19_14h50.37.397,Rewa's Exp,2023.1.2,59.99649620587999,,1.0,None,left,1.150438299999223
1.5,red,green,right,Countdown_1.5s.jpg,5.0,0.0,5.0,0.0,0.0,0.0,0.0,1.0,0.0,0.0,0.0,3.0,0.0,0.0,0.0,0.0,,,,,,,,,,,,529.8741717000084,531.3468161000055,1.4726443999970795,right,1.0,1.4491059000138191,None,12.0,54:46,1.0,,,,,,,,,,,,,Annie,1 - without skip,"54:46, 51:49","2.0s, 1.5s",2023-07-19_14h50.37.397,Rewa's Exp,2023.1.2,59.99649620587999,,1.0,None,right,1.4491059000138191
2.0,green,red,left,Countdown_2s.jpg,5.0,0.0,5.0,0.0,0.0,0.0,0.0,1.0,0.0,0.0,0.0,3.0,0.0,1.0,1.0,3.0,,,,,,,,,,,,535.2713137999963,536.7808223000029,1.509508500006632,left,1.0,1.4769505000003846,None,13.0,54:46,1.0,,,,,,,,,,,,,Annie,1 - without skip,"54:46, 51:49","2.0s, 1.5s",2023-07-19_14h50.37.397,Rewa's Exp,2023.1.2,59.99649620587999,,1.0,None,left,1.4769505000003846
2.0,red,green,right,Countdown_2s.jpg,5.0,0.0,5.0,0.0,0.0,0.0,0.0,1.0,0.0,0.0,0.0,3.0,0.0,2.0,2.0,1.0,,,,,,,,,,,,540.7103062999959,542.3969509000017,1.6866446000058204,right,1.0,1.6619054000038886,None,14.0,54:46,1.0,,,,,,,,,,,,,Annie,1 - without skip,"54:46, 51:49","2.0s, 1.5s",2023-07-19_14h50.37.397,Rewa's Exp,2023.1.2,59.99649620587999,,1.0,None,right,1.6619054000038886
1.5,green,red,left,Countdown_1.5s.jpg,5.0,0.0,5.0,0.0,0.0,0.0,0.0,1.0,0.0,0.0,0.0,3.0,0.0,3.0,3.0,2.0,,,,,,,,,,,,546.3085375000082,547.7632685999997,1.454731099991477,left,1.0,1.430799100009608,None,15.0,54:46,1.0,,,,,,,,,,,,,Annie,1 - without skip,"54:46, 51:49","2.0s, 1.5s",2023-07-19_14h50.37.397,Rewa's Exp,2023.1.2,59.99649620587999,,1.0,None,left,1.430799100009608
2.0,green,red,left,Countdown_2s.jpg,5.0,0.0,5.0,0.0,0.0,0.0,0.0,1.0,0.0,0.0,0.0,3.0,1.0,0.0,4.0,3.0,,,,,,,,,,,,551.6695531000005,553.3136178999994,1.6440647999988869,right,0.0,1.6138762000045972,None,13.0,54:46,-2.0,,,,,,,,,,,,,Annie,1 - without skip,"54:46, 51:49","2.0s, 1.5s",2023-07-19_14h50.37.397,Rewa's Exp,2023.1.2,59.99649620587999,,0.0,None,right,1.6138762000045972
1.5,green,red,left,Countdown_1.5s.jpg,5.0,0.0,5.0,0.0,0.0,0.0,0.0,1.0,0.0,0.0,0.0,3.0,1.0,1.0,5.0,2.0,,,,,,,,,,,,557.2307991999987,558.580037599997,1.3492383999982849,right,0.0,1.3169792999979109,None,11.0,54:46,-2.0,,,,,,,,,,,,,Annie,1 - without skip,"54:46, 51:49","2.0s, 1.5s",2023-07-19_14h50.37.397,Rewa's Exp,2023.1.2,59.99649620587999,,0.0,None,right,1.3169792999979109
1.5,red,green,right,Countdown_1.5s.jpg,5.0,0.0,5.0,0.0,0.0,0.0,0.0,1.0,0.0,0.0,0.0,3.0,1.0,2.0,6.0,0.0,,,,,,,,,,,,562.501317000002,563.3634759999986,0.862158999996609,right,1.0,0.8299349000008078,None,12.0,54:46,1.0,,,,,,,,,,,,,Annie,1 - without skip,"54:46, 51:49","2.0s, 1.5s",2023-07-19_14h50.37.397,Rewa's Exp,2023.1.2,59.99649620587999,,1.0,None,right,0.8299349000008078
2.0,red,green,right,Countdown_2s.jpg,5.0,0.0,5.0,0.0,0.0,0.0,0.0,1.0,0.0,0.0,0.0,3.0,1.0,3.0,7.0,1.0,,,,,,,,,,,,567.2543442000024,568.7469143000053,1.492570100002922,right,1.0,1.4688756999967154,None,13.0,54:46,1.0,,,,,,,,,,,,,Annie,1 - without skip,"54:46, 51:49","2.0s, 1.5s",2023-07-19_14h50.37.397,Rewa's Exp,2023.1.2,59.99649620587999,,1.0,None,right,1.4688756999967154
2.0,red,green,right,Countdown_2s.jpg,5.0,0.0,5.0,0.0,0.0,0.0,0.0,1.0,0.0,0.0,0.0,3.0,,,,,0.0,0.0,0.0,1.0,,,,,,,,572.6814366000035,573.9967690000049,1.3153324000013529,,,,,11.0,51:49,-2.0,left,0.0,1.2983709999971325,None,,,,,,,,,Annie,1 - without skip,"54:46, 51:49","2.0s, 1.5s",2023-07-19_14h50.37.397,Rewa's Exp,2023.1.2,59.99649620587999,,0.0,None,left,1.2983709999971325
1.5,red,green,right,Countdown_1.5s.jpg,5.0,0.0,5.0,0.0,0.0,0.0,0.0,1.0,0.0,0.0,0.0,3.0,,,,,0.0,1.0,1.0,0.0,,,,,,,,577.9192044000083,579.2805867999996,1.361382399991271,,,,,12.0,51:49,1.0,right,1.0,1.339661200006958,None,,,,,,,,,Annie,1 - without skip,"54:46, 51:49","2.0s, 1.5s",2023-07-19_14h50.37.397,Rewa's Exp,2023.1.2,59.99649620587999,,1.0,None,right,1.339661200006958
1.5,green,red,left,Countdown_1.5s.jpg,5.0,0.0,5.0,0.0,0.0,0.0,0.0,1.0,0.0,0.0,0.0,3.0,,,,,0.0,2.0,2.0,2.0,,,,,,,,583.2032034000003,584.2803953999974,1.0771919999970123,,,,,10.0,51:49,-2.0,right,0.0,1.047347700005048,None,,,,,,,,,Annie,1 - without skip,"54:46, 51:49","2.0s, 1.5s",2023-07-19_14h50.37.397,Rewa's Exp,2023.1.2,59.99649620587999,,0.0,None,right,1.047347700005048
2.0,green,red,left,Countdown_2s.jpg,5.0,0.0,5.0,0.0,0.0,0.0,0.0,1.0,0.0,0.0,0.0,3.0,,,,,0.0,3.0,3.0,3.0,,,,,,,,588.2147240000049,589.5800106999959,1.3652866999909747,,,,,11.0,51:49,1.0,left,1.0,1.333455400003004,None,,,,,,,,,Annie,1 - without skip,"54:46, 51:49","2.0s, 1.5s",2023-07-19_14h50.37.397,Rewa's Exp,2023.1.2,59.99649620587999,,1.0,None,left,1.333455400003004
1.5,green,red,left,Countdown_1.5s.jpg,5.0,0.0,5.0,0.0,0.0,0.0,0.0,1.0,0.0,0.0,0.0,3.0,,,,,1.0,0.0,4.0,2.0,,,,,,,,593.4910817000055,594.896911799995,1.4058300999895437,,,,,9.0,51:49,-2.0,right,0.0,1.3842773000069428,None,,,,,,,,,Annie,1 - without skip,"54:46, 51:49","2.0s, 1.5s",2023-07-19_14h50.37.397,Rewa's Exp,2023.1.2,59.99649620587999,,0.0,None,right,1.3842773000069428
2.0,red,green,right,Countdown_2s.jpg,5.0,0.0,5.0,0.0,0.0,0.0,0.0,1.0,0.0,0.0,0.0,3.0,,,,,1.0,1.0,5.0,1.0,,,,,,,,598.8074864000082,599.7465953000064,0.9391088999982458,,,,,10.0,51:49,1.0,right,1.0,0.907267500006128,None,,,,,,,,,Annie,1 - without skip,"54:46, 51:49","2.0s, 1.5s",2023-07-19_14h50.37.397,Rewa's Exp,2023.1.2,59.99649620587999,,1.0,None,right,0.907267500006128
1.5,red,green,right,Countdown_1.5s.jpg,5.0,0.0,5.0,0.0,0.0,0.0,0.0,1.0,0.0,0.0,0.0,3.0,,,,,1.0,2.0,6.0,0.0,,,,,,,,603.6380684000032,604.9824090000038,1.344340600000578,,,,,11.0,51:49,1.0,right,1.0,1.3098741000139853,None,,,,,,,,,Annie,1 - without skip,"54:46, 51:49","2.0s, 1.5s",2023-07-19_14h50.37.397,Rewa's Exp,2023.1.2,59.99649620587999,,1.0,None,right,1.3098741000139853
2.0,green,red,left,Countdown_2s.jpg,5.0,0.0,5.0,0.0,0.0,0.0,0.0,1.0,0.0,0.0,0.0,3.0,,,,,1.0,3.0,7.0,3.0,,,,,,,,608.8925027000078,610.463345600001,1.5708428999932948,,,,,12.0,51:49,1.0,left,1.0,1.5425699000043096,None,,,,,,,,,Annie,1 - without skip,"54:46, 51:49","2.0s, 1.5s",2023-07-19_14h50.37.397,Rewa's Exp,2023.1.2,59.99649620587999,,1.0,None,left,1.5425699000043096
2.0,red,green,right,Countdown_2s.jpg,6.0,0.0,6.0,0.0,0.0,0.0,0.0,0.0,0.0,0.0,0.0,1.0,0.0,0.0,0.0,1.0,,,,,,,,,,,,617.1199522999959,618.2468053000048,1.1268530000088504,right,1.0,1.1070065999956569,None,13.0,54:46,1.0,,,,,,,,,,,,,Annie,1 - without skip,"54:46, 51:49","2.0s, 1.5s",2023-07-19_14h50.37.397,Rewa's Exp,2023.1.2,59.99649620587999,,1.0,None,right,1.1070065999956569
1.5,red,green,right,Countdown_1.5s.jpg,6.0,0.0,6.0,0.0,0.0,0.0,0.0,0.0,0.0,0.0,0.0,1.0,0.0,1.0,1.0,0.0,,,,,,,,,,,,622.1961145999958,623.2966459000017,1.1005313000059689,right,1.0,1.0717439000000013,None,14.0,54:46,1.0,,,,,,,,,,,,,Annie,1 - without skip,"54:46, 51:49","2.0s, 1.5s",2023-07-19_14h50.37.397,Rewa's Exp,2023.1.2,59.99649620587999,,1.0,None,right,1.0717439000000013
2.0,green,red,left,Countdown_2s.jpg,6.0,0.0,6.0,0.0,0.0,0.0,0.0,0.0,0.0,0.0,0.0,1.0,0.0,2.0,2.0,3.0,,,,,,,,,,,,627.1934271000064,628.7634653999994,1.5700382999930298,left,1.0,1.5453326999995625,None,15.0,54:46,1.0,,,,,,,,,,,,,Annie,1 - without skip,"54:46, 51:49","2.0s, 1.5s",2023-07-19_14h50.37.397,Rewa's Exp,2023.1.2,59.99649620587999,,1.0,None,left,1.5453326999995625
1.5,green,red,left,Countdown_1.5s.jpg,6.0,0.0,6.0,0.0,0.0,0.0,0.0,0.0,0.0,0.0,0.0,1.0,0.0,3.0,3.0,2.0,,,,,,,,,,,,632.718223799995,633.8467914000066,1.1285676000115927,left,1.0,1.110485500001232,None,16.0,54:46,1.0,,,,,,,,,,,,,Annie,1 - without skip,"54:46, 51:49","2.0s, 1.5s",2023-07-19_14h50.37.397,Rewa's Exp,2023.1.2,59.99649620587999,,1.0,None,left,1.110485500001232
2.0,green,red,left,Countdown_2s.jpg,6.0,0.0,6.0,0.0,0.0,0.0,0.0,0.0,0.0,0.0,0.0,1.0,1.0,0.0,4.0,3.0,,,,,,,,,,,,637.7467260999983,638.7306901999982,0.9839640999998664,left,1.0,0.9519054999982473,None,17.0,54:46,1.0,,,,,,,,,,,,,Annie,1 - without skip,"54:46, 51:49","2.0s, 1.5s",2023-07-19_14h50.37.397,Rewa's Exp,2023.1.2,59.99649620587999,,1.0,None,left,0.9519054999982473
1.5,red,green,right,Countdown_1.5s.jpg,6.0,0.0,6.0,0.0,0.0,0.0,0.0,0.0,0.0,0.0,0.0,1.0,1.0,1.0,5.0,0.0,,,,,,,,,,,,642.635166299995,643.9800571000087,1.3448908000136726,right,1.0,1.3123386000079336,None,18.0,54:46,1.0,,,,,,,,,,,,,Annie,1 - without skip,"54:46, 51:49","2.0s, 1.5s",2023-07-19_14h50.37.397,Rewa's Exp,2023.1.2,59.99649620587999,,1.0,None,right,1.3123386000079336
1.5,green,red,left,Countdown_1.5s.jpg,6.0,0.0,6.0,0.0,0.0,0.0,0.0,0.0,0.0,0.0,0.0,1.0,1.0,2.0,6.0,2.0,,,,,,,,,,,,647.8734274000017,649.1804458999977,1.3070184999960477,left,1.0,1.2902657000086035,None,19.0,54:46,1.0,,,,,,,,,,,,,Annie,1 - without skip,"54:46, 51:49","2.0s, 1.5s",2023-07-19_14h50.37.397,Rewa's Exp,2023.1.2,59.99649620587999,,1.0,None,left,1.2902657000086035
2.0,red,green,right,Countdown_2s.jpg,6.0,0.0,6.0,0.0,0.0,0.0,0.0,0.0,0.0,0.0,0.0,1.0,1.0,3.0,7.0,1.0,,,,,,,,,,,,653.1088552000001,653.9469195999991,0.8380643999989843,right,1.0,0.8147532000002684,None,20.0,54:46,1.0,,,,,,,,,,,,,Annie,1 - without skip,"54:46, 51:49","2.0s, 1.5s",2023-07-19_14h50.37.397,Rewa's Exp,2023.1.2,59.99649620587999,,1.0,None,right,0.8147532000002684
2.0,red,green,right,Countdown_2s.jpg,6.0,0.0,6.0,0.0,0.0,0.0,0.0,0.0,0.0,0.0,0.0,1.0,,,,,0.0,0.0,0.0,1.0,,,,,,,,657.9061231999949,659.2466832000064,1.3405600000114646,,,,,18.0,51:49,-2.0,left,0.0,1.3133089000039035,None,,,,,,,,,Annie,1 - without skip,"54:46, 51:49","2.0s, 1.5s",2023-07-19_14h50.37.397,Rewa's Exp,2023.1.2,59.99649620587999,,0.0,None,left,1.3133089000039035
2.0,green,red,left,Countdown_2s.jpg,6.0,0.0,6.0,0.0,0.0,0.0,0.0,0.0,0.0,0.0,0.0,1.0,,,,,0.0,1.0,1.0,3.0,,,,,,,,663.1807594999991,664.6468238000089,1.466064300009748,,,,,19.0,51:49,1.0,left,1.0,1.4392303000058746,None,,,,,,,,,Annie,1 - without skip,"54:46, 51:49","2.0s, 1.5s",2023-07-19_14h50.37.397,Rewa's Exp,2023.1.2,59.99649620587999,,1.0,None,left,1.4392303000058746
1.5,red,green,right,Countdown_1.5s.jpg,6.0,0.0,6.0,0.0,0.0,0.0,0.0,0.0,0.0,0.0,0.0,1.0,,,,,0.0,2.0,2.0,0.0,,,,,,,,668.5595407000073,669.7634167000069,1.2038759999995818,,,,,20.0,51:49,1.0,right,1.0,1.1714225000032457,None,,,,,,,,,Annie,1 - without skip,"54:46, 51:49","2.0s, 1.5s",2023-07-19_14h50.37.397,Rewa's Exp,2023.1.2,59.99649620587999,,1.0,None,right,1.1714225000032457
1.5,green,red,left,Countdown_1.5s.jpg,6.0,0.0,6.0,0.0,0.0,0.0,0.0,0.0,0.0,0.0,0.0,1.0,,,,,0.0,3.0,3.0,2.0,,,,,,,,673.6839479000046,675.1633631000004,1.4794151999958558,,,,,18.0,51:49,-2.0,right,0.0,1.456382999997004,None,,,,,,,,,Annie,1 - without skip,"54:46, 51:49","2.0s, 1.5s",2023-07-19_14h50.37.397,Rewa's Exp,2023.1.2,59.99649620587999,,0.0,None,right,1.456382999997004
2.0,red,green,right,Countdown_2s.jpg,6.0,0.0,6.0,0.0,0.0,0.0,0.0,0.0,0.0,0.0,0.0,1.0,,,,,1.0,0.0,4.0,1.0,,,,,,,,679.0871732999949,680.6806638999988,1.593490600003861,,,,,19.0,51:49,1.0,right,1.0,1.5720727000007173,None,,,,,,,,,Annie,1 - without skip,"54:46, 51:49","2.0s, 1.5s",2023-07-19_14h50.37.397,Rewa's Exp,2023.1.2,59.99649620587999,,1.0,None,right,1.5720727000007173
1.5,green,red,left,Countdown_1.5s.jpg,6.0,0.0,6.0,0.0,0.0,0.0,0.0,0.0,0.0,0.0,0.0,1.0,,,,,1.0,1.0,5.0,2.0,,,,,,,,684.6661877000006,685.6300521000085,0.9638644000078784,,,,,17.0,51:49,-2.0,right,0.0,0.9454353000037372,None,,,,,,,,,Annie,1 - without skip,"54:46, 51:49","2.0s, 1.5s",2023-07-19_14h50.37.397,Rewa's Exp,2023.1.2,59.99649620587999,,0.0,None,right,0.9454353000037372
1.5,red,green,right,Countdown_1.5s.jpg,6.0,0.0,6.0,0.0,0.0,0.0,0.0,0.0,0.0,0.0,0.0,1.0,,,,,1.0,2.0,6.0,0.0,,,,,,,,689.5901250000024,690.9300879000075,1.339962900005048,,,,,18.0,51:49,1.0,right,1.0,1.3085270000010496,None,,,,,,,,,Annie,1 - without skip,"54:46, 51:49","2.0s, 1.5s",2023-07-19_14h50.37.397,Rewa's Exp,2023.1.2,59.99649620587999,,1.0,None,right,1.3085270000010496
2.0,green,red,left,Countdown_2s.jpg,6.0,0.0,6.0,0.0,0.0,0.0,0.0,0.0,0.0,0.0,0.0,1.0,,,,,1.0,3.0,7.0,3.0,,,,,,,,694.8105715999991,696.5800579000061,1.7694863000069745,,,,,19.0,51:49,1.0,left,1.0,1.7453007000149228,None,,,,,,,,,Annie,1 - without skip,"54:46, 51:49","2.0s, 1.5s",2023-07-19_14h50.37.397,Rewa's Exp,2023.1.2,59.99649620587999,,1.0,None,left,1.7453007000149228
1.5,green,red,left,Countdown_1.5s.jpg,7.0,0.0,7.0,0.0,0.0,0.0,0.0,0.0,0.0,0.0,0.0,2.0,0.0,0.0,0.0,2.0,,,,,,,,,,,,702.0401280000078,703.5133318000007,1.4732037999929162,left,1.0,1.4506752000161214,None,20.0,54:46,1.0,,,,,,,,,,,,,Annie,1 - without skip,"54:46, 51:49","2.0s, 1.5s",2023-07-19_14h50.37.397,Rewa's Exp,2023.1.2,59.99649620587999,,1.0,None,left,1.4506752000161214
2.0,red,green,right,Countdown_2s.jpg,7.0,0.0,7.0,0.0,0.0,0.0,0.0,0.0,0.0,0.0,0.0,2.0,0.0,1.0,1.0,1.0,,,,,,,,,,,,707.4884433999978,709.1803967000014,1.6919533000036608,right,1.0,1.6596100000024308,None,21.0,54:46,1.0,,,,,,,,,,,,,Annie,1 - without skip,"54:46, 51:49","2.0s, 1.5s",2023-07-19_14h50.37.397,Rewa's Exp,2023.1.2,59.99649620587999,,1.0,None,right,1.6596100000024308
2.0,green,red,left,Countdown_2s.jpg,7.0,0.0,7.0,0.0,0.0,0.0,0.0,0.0,0.0,0.0,0.0,2.0,0.0,2.0,2.0,3.0,,,,,,,,,,,,713.1150708000059,714.613454300008,1.4983835000020918,left,1.0,1.4714846999995643,None,22.0,54:46,1.0,,,,,,,,,,,,,Annie,1 - without skip,"54:46, 51:49","2.0s, 1.5s",2023-07-19_14h50.37.397,Rewa's Exp,2023.1.2,59.99649620587999,,1.0,None,left,1.4714846999995643
1.5,red,green,right,Countdown_1.5s.jpg,7.0,0.0,7.0,0.0,0.0,0.0,0.0,0.0,0.0,0.0,0.0,2.0,0.0,3.0,3.0,0.0,,,,,,,,,,,,718.4950416000065,719.6801217000029,1.1850800999964122,right,1.0,1.1641329000121914,None,23.0,54:46,1.0,,,,,,,,,,,,,Annie,1 - without skip,"54:46, 51:49","2.0s, 1.5s",2023-07-19_14h50.37.397,Rewa's Exp,2023.1.2,59.99649620587999,,1.0,None,right,1.1641329000121914
2.0,red,green,right,Countdown_2s.jpg,7.0,0.0,7.0,0.0,0.0,0.0,0.0,0.0,0.0,0.0,0.0,2.0,1.0,0.0,4.0,1.0,,,,,,,,,,,,723.5562633000081,724.9473757000087,1.3911124000005657,right,1.0,1.3590043000003789,None,24.0,54:46,1.0,,,,,,,,,,,,,Annie,1 - without skip,"54:46, 51:49","2.0s, 1.5s",2023-07-19_14h50.37.397,Rewa's Exp,2023.1.2,59.99649620587999,,1.0,None,right,1.3590043000003789
2.0,green,red,left,Countdown_2s.jpg,7.0,0.0,7.0,0.0,0.0,0.0,0.0,0.0,0.0,0.0,0.0,2.0,1.0,1.0,5.0,3.0,,,,,,,,,,,,728.888678999996,730.196618300004,1.3079393000080015,left,1.0,1.2914690999896266,None,25.0,54:46,1.0,,,,,,,,,,,,,Annie,1 - without skip,"54:46, 51:49","2.0s, 1.5s",2023-07-19_14h50.37.397,Rewa's Exp,2023.1.2,59.99649620587999,,1.0,None,left,1.2914690999896266
1.5,green,red,left,Countdown_1.5s.jpg,7.0,0.0,7.0,0.0,0.0,0.0,0.0,0.0,0.0,0.0,0.0,2.0,1.0,2.0,6.0,2.0,,,,,,,,,,,,734.1302946000069,735.6301583000022,1.4998636999953303,right,0.0,1.488050400002976,None,23.0,54:46,-2.0,,,,,,,,,,,,,Annie,1 - without skip,"54:46, 51:49","2.0s, 1.5s",2023-07-19_14h50.37.397,Rewa's Exp,2023.1.2,59.99649620587999,,0.0,None,right,1.488050400002976
1.5,red,green,right,Countdown_1.5s.jpg,7.0,0.0,7.0,0.0,0.0,0.0,0.0,0.0,0.0,0.0,0.0,2.0,1.0,3.0,7.0,0.0,,,,,,,,,,,,739.5319579000061,740.9134716999979,1.381513799991808,left,0.0,1.3583620999997947,None,21.0,54:46,-2.0,,,,,,,,,,,,,Annie,1 - without skip,"54:46, 51:49","2.0s, 1.5s",2023-07-19_14h50.37.397,Rewa's Exp,2023.1.2,59.99649620587999,,0.0,None,left,1.3583620999997947
1.5,green,red,left,Countdown_1.5s.jpg,7.0,0.0,7.0,0.0,0.0,0.0,0.0,0.0,0.0,0.0,0.0,2.0,,,,,0.0,0.0,0.0,2.0,,,,,,,,744.8180004000023,745.8299513000093,1.011950900006923,,,,,19.0,51:49,-2.0,right,0.0,0.9924659000098472,None,,,,,,,,,Annie,1 - without skip,"54:46, 51:49","2.0s, 1.5s",2023-07-19_14h50.37.397,Rewa's Exp,2023.1.2,59.99649620587999,,0.0,None,right,0.9924659000098472
1.5,red,green,right,Countdown_1.5s.jpg,7.0,0.0,7.0,0.0,0.0,0.0,0.0,0.0,0.0,0.0,0.0,2.0,,,,,0.0,1.0,1.0,0.0,,,,,,,,749.787228000001,751.163421899997,1.3761938999959966,,,,,20.0,51:49,1.0,right,1.0,1.343555200000992,None,,,,,,,,,Annie,1 - without skip,"54:46, 51:49","2.0s, 1.5s",2023-07-19_14h50.37.397,Rewa's Exp,2023.1.2,59.99649620587999,,1.0,None,right,1.343555200000992
2.0,red,green,right,Countdown_2s.jpg,7.0,0.0,7.0,0.0,0.0,0.0,0.0,0.0,0.0,0.0,0.0,2.0,,,,,0.0,2.0,2.0,1.0,,,,,,,,755.0651441000082,756.7466705999977,1.681526499989559,,,,,18.0,51:49,-2.0,left,0.0,1.6581146999960763,None,,,,,,,,,Annie,1 - without skip,"54:46, 51:49","2.0s, 1.5s",2023-07-19_14h50.37.397,Rewa's Exp,2023.1.2,59.99649620587999,,0.0,None,left,1.6581146999960763
2.0,green,red,left,Countdown_2s.jpg,7.0,0.0,7.0,0.0,0.0,0.0,0.0,0.0,0.0,0.0,0.0,2.0,,,,,0.0,3.0,3.0,3.0,,,,,,,,760.6589908000024,761.7966594000027,1.1376686000003249,,,,,16.0,51:49,-2.0,right,0.0,1.1119097000046168,None,,,,,,,,,Annie,1 - without skip,"54:46, 51:49","2.0s, 1.5s",2023-07-19_14h50.37.397,Rewa's Exp,2023.1.2,59.99649620587999,,0.0,None,right,1.1119097000046168
1.5,green,red,left,Countdown_1.5s.jpg,7.0,0.0,7.0,0.0,0.0,0.0,0.0,0.0,0.0,0.0,0.0,2.0,,,,,1.0,0.0,4.0,2.0,,,,,,,,765.701913500001,767.0803139000054,1.378400400004466,,,,,14.0,51:49,-2.0,right,0.0,1.357295099995099,None,,,,,,,,,Annie,1 - without skip,"54:46, 51:49","2.0s, 1.5s",2023-07-19_14h50.37.397,Rewa's Exp,2023.1.2,59.99649620587999,,0.0,None,right,1.357295099995099
1.5,red,green,right,Countdown_1.5s.jpg,7.0,0.0,7.0,0.0,0.0,0.0,0.0,0.0,0.0,0.0,0.0,2.0,,,,,1.0,1.0,5.0,0.0,,,,,,,,770.9747767000081,772.2799470000027,1.3051702999946428,,,,,12.0,51:49,-2.0,left,0.0,1.2853192999900784,None,,,,,,,,,Annie,1 - without skip,"54:46, 51:49","2.0s, 1.5s",2023-07-19_14h50.37.397,Rewa's Exp,2023.1.2,59.99649620587999,,0.0,None,left,1.2853192999900784
2.0,green,red,left,Countdown_2s.jpg,7.0,0.0,7.0,0.0,0.0,0.0,0.0,0.0,0.0,0.0,0.0,2.0,,,,,1.0,2.0,6.0,3.0,,,,,,,,776.2088906999998,778.046645800001,1.837755100001232,,,,,10.0,51:49,-2.0,right,0.0,1.8188494000060016,None,,,,,,,,,Annie,1 - without skip,"54:46, 51:49","2.0s, 1.5s",2023-07-19_14h50.37.397,Rewa's Exp,2023.1.2,59.99649620587999,,0.0,None,right,1.8188494000060016
2.0,red,green,right,Countdown_2s.jpg,7.0,0.0,7.0,0.0,0.0,0.0,0.0,0.0,0.0,0.0,0.0,2.0,,,,,1.0,3.0,7.0,1.0,,,,,,,,781.9935994999978,783.6638855000056,1.6702860000077635,,,,,8.0,51:49,-2.0,left,0.0,1.6413136999908602,None,,,,,,,,,Annie,1 - without skip,"54:46, 51:49","2.0s, 1.5s",2023-07-19_14h50.37.397,Rewa's Exp,2023.1.2,59.99649620587999,,0.0,None,left,1.6413136999908602
1.5,red,green,right,Countdown_1.5s.jpg,8.0,0.0,8.0,0.0,0.0,0.0,0.0,3.0,0.0,0.0,0.0,0.0,0.0,0.0,0.0,0.0,,,,,,,,,,,,789.3468310000026,790.8302491000068,1.4834181000042008,None,0.0,,None,6.0,54:46,-2.0,,,,,,,,,,,,,Annie,1 - without skip,"54:46, 51:49","2.0s, 1.5s",2023-07-19_14h50.37.397,Rewa's Exp,2023.1.2,59.99649620587999,,-1.0,None,None,
2.0,green,red,left,Countdown_2s.jpg,8.0,0.0,8.0,0.0,0.0,0.0,0.0,3.0,0.0,0.0,0.0,0.0,0.0,1.0,1.0,3.0,,,,,,,,,,,,794.7389967000054,796.4134276999976,1.6744309999921825,left,1.0,1.656120400002692,None,7.0,54:46,1.0,,,,,,,,,,,,,Annie,1 - without skip,"54:46, 51:49","2.0s, 1.5s",2023-07-19_14h50.37.397,Rewa's Exp,2023.1.2,59.99649620587999,,1.0,None,left,1.656120400002692
2.0,red,green,right,Countdown_2s.jpg,8.0,0.0,8.0,0.0,0.0,0.0,0.0,3.0,0.0,0.0,0.0,0.0,0.0,2.0,2.0,1.0,,,,,,,,,,,,800.3749405999988,801.9302251000045,1.555284500005655,left,0.0,1.5314213000092425,None,5.0,54:46,-2.0,,,,,,,,,,,,,Annie,1 - without skip,"54:46, 51:49","2.0s, 1.5s",2023-07-19_14h50.37.397,Rewa's Exp,2023.1.2,59.99649620587999,,0.0,None,left,1.5314213000092425
1.5,green,red,left,Countdown_1.5s.jpg,8.0,0.0,8.0,0.0,0.0,0.0,0.0,3.0,0.0,0.0,0.0,0.0,0.0,3.0,3.0,2.0,,,,,,,,,,,,805.8977790000063,807.0800100000051,1.1822309999988647,left,1.0,1.1614965000044322,None,6.0,54:46,1.0,,,,,,,,,,,,,Annie,1 - without skip,"54:46, 51:49","2.0s, 1.5s",2023-07-19_14h50.37.397,Rewa's Exp,2023.1.2,59.99649620587999,,1.0,None,left,1.1614965000044322
2.0,green,red,left,Countdown_2s.jpg,8.0,0.0,8.0,0.0,0.0,0.0,0.0,3.0,0.0,0.0,0.0,0.0,1.0,0.0,4.0,3.0,,,,,,,,,,,,810.9699780000083,812.7298544000078,1.7598763999994844,left,1.0,1.737208800012013,None,7.0,54:46,1.0,,,,,,,,,,,,,Annie,1 - without skip,"54:46, 51:49","2.0s, 1.5s",2023-07-19_14h50.37.397,Rewa's Exp,2023.1.2,59.99649620587999,,1.0,None,left,1.737208800012013
2.0,red,green,right,Countdown_2s.jpg,8.0,0.0,8.0,0.0,0.0,0.0,0.0,3.0,0.0,0.0,0.0,0.0,1.0,1.0,5.0,1.0,,,,,,,,,,,,816.6469333999994,817.8804586000042,1.2335252000048058,right,1.0,1.2122360000066692,None,8.0,54:46,1.0,,,,,,,,,,,,,Annie,1 - without skip,"54:46, 51:49","2.0s, 1.5s",2023-07-19_14h50.37.397,Rewa's Exp,2023.1.2,59.99649620587999,,1.0,None,right,1.2122360000066692
1.5,green,red,left,Countdown_1.5s.jpg,8.0,0.0,8.0,0.0,0.0,0.0,0.0,3.0,0.0,0.0,0.0,0.0,1.0,2.0,6.0,2.0,,,,,,,,,,,,821.836761700004,822.7964241000009,0.959662399996887,left,1.0,0.9345412999973632,None,9.0,54:46,1.0,,,,,,,,,,,,,Annie,1 - without skip,"54:46, 51:49","2.0s, 1.5s",2023-07-19_14h50.37.397,Rewa's Exp,2023.1.2,59.99649620587999,,1.0,None,left,0.9345412999973632
1.5,red,green,right,Countdown_1.5s.jpg,8.0,0.0,8.0,0.0,0.0,0.0,0.0,3.0,0.0,0.0,0.0,0.0,1.0,3.0,7.0,0.0,,,,,,,,,,,,826.7160301999975,827.7630711000093,1.0470409000117795,right,1.0,1.014685999994981,None,10.0,54:46,1.0,,,,,,,,,,,,,Annie,1 - without skip,"54:46, 51:49","2.0s, 1.5s",2023-07-19_14h50.37.397,Rewa's Exp,2023.1.2,59.99649620587999,,1.0,None,right,1.014685999994981
1.5,red,green,right,Countdown_1.5s.jpg,8.0,0.0,8.0,0.0,0.0,0.0,0.0,3.0,0.0,0.0,0.0,0.0,,,,,0.0,0.0,0.0,0.0,,,,,,,,831.7135952999961,832.8467932000058,1.1331979000096908,,,,,8.0,51:49,-2.0,left,0.0,1.1141949000011664,None,,,,,,,,,Annie,1 - without skip,"54:46, 51:49","2.0s, 1.5s",2023-07-19_14h50.37.397,Rewa's Exp,2023.1.2,59.99649620587999,,0.0,None,left,1.1141949000011664
2.0,red,green,right,Countdown_2s.jpg,8.0,0.0,8.0,0.0,0.0,0.0,0.0,3.0,0.0,0.0,0.0,0.0,,,,,0.0,1.0,1.0,1.0,,,,,,,,836.7849829000043,838.0299659000011,1.2449829999968642,,,,,6.0,51:49,-2.0,left,0.0,1.217649700003676,None,,,,,,,,,Annie,1 - without skip,"54:46, 51:49","2.0s, 1.5s",2023-07-19_14h50.37.397,Rewa's Exp,2023.1.2,59.99649620587999,,0.0,None,left,1.217649700003676
1.5,green,red,left,Countdown_1.5s.jpg,8.0,0.0,8.0,0.0,0.0,0.0,0.0,3.0,0.0,0.0,0.0,0.0,,,,,0.0,2.0,2.0,2.0,,,,,,,,841.9435471000033,843.3632471000019,1.4196999999985565,,,,,7.0,51:49,1.0,left,1.0,1.386608900007559,None,,,,,,,,,Annie,1 - without skip,"54:46, 51:49","2.0s, 1.5s",2023-07-19_14h50.37.397,Rewa's Exp,2023.1.2,59.99649620587999,,1.0,None,left,1.386608900007559
2.0,green,red,left,Countdown_2s.jpg,8.0,0.0,8.0,0.0,0.0,0.0,0.0,3.0,0.0,0.0,0.0,0.0,,,,,0.0,3.0,3.0,3.0,,,,,,,,847.2584429999988,848.8467537999968,1.5883107999979984,,,,,8.0,51:49,1.0,left,1.0,1.56843270000536,None,,,,,,,,,Annie,1 - without skip,"54:46, 51:49","2.0s, 1.5s",2023-07-19_14h50.37.397,Rewa's Exp,2023.1.2,59.99649620587999,,1.0,None,left,1.56843270000536
2.0,red,green,right,Countdown_2s.jpg,8.0,0.0,8.0,0.0,0.0,0.0,0.0,3.0,0.0,0.0,0.0,0.0,,,,,1.0,0.0,4.0,1.0,,,,,,,,852.7828742999991,854.4964395999996,1.7135653000004822,,,,,9.0,51:49,1.0,right,1.0,1.68540600000415,None,,,,,,,,,Annie,1 - without skip,"54:46, 51:49","2.0s, 1.5s",2023-07-19_14h50.37.397,Rewa's Exp,2023.1.2,59.99649620587999,,1.0,None,right,1.68540600000415
2.0,green,red,left,Countdown_2s.jpg,8.0,0.0,8.0,0.0,0.0,0.0,0.0,3.0,0.0,0.0,0.0,0.0,,,,,1.0,1.0,5.0,3.0,,,,,,,,858.4155377999996,859.813078200008,1.3975404000084382,,,,,10.0,51:49,1.0,left,1.0,1.3718701000034343,None,,,,,,,,,Annie,1 - without skip,"54:46, 51:49","2.0s, 1.5s",2023-07-19_14h50.37.397,Rewa's Exp,2023.1.2,59.99649620587999,,1.0,None,left,1.3718701000034343
1.5,green,red,left,Countdown_1.5s.jpg,8.0,0.0,8.0,0.0,0.0,0.0,0.0,3.0,0.0,0.0,0.0,0.0,,,,,1.0,2.0,6.0,2.0,,,,,,,,863.7259996000066,865.029810299995,1.3038106999883894,,,,,8.0,51:49,-2.0,right,0.0,1.2856031999981496,None,,,,,,,,,Annie,1 - without skip,"54:46, 51:49","2.0s, 1.5s",2023-07-19_14h50.37.397,Rewa's Exp,2023.1.2,59.99649620587999,,0.0,None,right,1.2856031999981496
1.5,red,green,right,Countdown_1.5s.jpg,8.0,0.0,8.0,0.0,0.0,0.0,0.0,3.0,0.0,0.0,0.0,0.0,,,,,1.0,3.0,7.0,0.0,,,,,,,,868.9585794000013,870.4468680999998,1.4882886999985203,,,,,6.0,51:49,-2.0,left,0.0,1.4851639999978945,None,,,,,,,,,Annie,1 - without skip,"54:46, 51:49","2.0s, 1.5s",2023-07-19_14h50.37.397,Rewa's Exp,2023.1.2,59.99649620587999,,0.0,None,left,1.4851639999978945
1.5,green,red,left,Countdown_1.5s.jpg,9.0,0.0,9.0,0.0,0.0,0.0,0.0,2.0,0.0,0.0,0.0,1.0,0.0,0.0,0.0,2.0,,,,,,,,,,,,876.6079442000046,877.7633557000081,1.155411500003538,left,1.0,1.1315856000146596,None,7.0,54:46,1.0,,,,,,,,,,,,,Annie,1 - without skip,"54:46, 51:49","2.0s, 1.5s",2023-07-19_14h50.37.397,Rewa's Exp,2023.1.2,59.99649620587999,,1.0,None,left,1.1315856000146596
2.0,red,green,right,Countdown_2s.jpg,9.0,0.0,9.0,0.0,0.0,0.0,0.0,2.0,0.0,0.0,0.0,1.0,0.0,1.0,1.0,1.0,,,,,,,,,,,,881.723811200005,883.4132422999974,1.689431099992362,right,1.0,1.6707001000031596,None,8.0,54:46,1.0,,,,,,,,,,,,,Annie,1 - without skip,"54:46, 51:49","2.0s, 1.5s",2023-07-19_14h50.37.397,Rewa's Exp,2023.1.2,59.99649620587999,,1.0,None,right,1.6707001000031596
2.0,green,red,left,Countdown_2s.jpg,9.0,0.0,9.0,0.0,0.0,0.0,0.0,2.0,0.0,0.0,0.0,1.0,0.0,2.0,2.0,3.0,,,,,,,,,,,,887.3433044999983,888.163272100006,0.8199676000076579,right,0.0,0.796210999993491,None,6.0,54:46,-2.0,,,,,,,,,,,,,Annie,1 - without skip,"54:46, 51:49","2.0s, 1.5s",2023-07-19_14h50.37.397,Rewa's Exp,2023.1.2,59.99649620587999,,0.0,None,right,0.796210999993491
1.5,red,green,right,Countdown_1.5s.jpg,9.0,0.0,9.0,0.0,0.0,0.0,0.0,2.0,0.0,0.0,0.0,1.0,0.0,3.0,3.0,0.0,,,,,,,,,,,,892.0717288000014,893.2968327999988,1.2251039999973727,left,0.0,1.1940489999979036,None,4.0,54:46,-2.0,,,,,,,,,,,,,Annie,1 - without skip,"54:46, 51:49","2.0s, 1.5s",2023-07-19_14h50.37.397,Rewa's Exp,2023.1.2,59.99649620587999,,0.0,None,left,1.1940489999979036
1.5,red,green,right,Countdown_1.5s.jpg,9.0,0.0,9.0,0.0,0.0,0.0,0.0,2.0,0.0,0.0,0.0,1.0,1.0,0.0,4.0,0.0,,,,,,,,,,,,897.2267595000012,898.4797505000024,1.2529910000012023,left,0.0,1.2314183000125922,None,2.0,54:46,-2.0,,,,,,,,,,,,,Annie,1 - without skip,"54:46, 51:49","2.0s, 1.5s",2023-07-19_14h50.37.397,Rewa's Exp,2023.1.2,59.99649620587999,,0.0,None,left,1.2314183000125922
1.5,green,red,left,Countdown_1.5s.jpg,9.0,0.0,9.0,0.0,0.0,0.0,0.0,2.0,0.0,0.0,0.0,1.0,1.0,1.0,5.0,2.0,,,,,,,,,,,,902.4330841000046,903.6463758000028,1.2132916999980807,left,1.0,1.1855847999977414,None,3.0,54:46,1.0,,,,,,,,,,,,,Annie,1 - without skip,"54:46, 51:49","2.0s, 1.5s",2023-07-19_14h50.37.397,Rewa's Exp,2023.1.2,59.99649620587999,,1.0,None,left,1.1855847999977414
2.0,red,green,right,Countdown_2s.jpg,9.0,0.0,9.0,0.0,0.0,0.0,0.0,2.0,0.0,0.0,0.0,1.0,1.0,2.0,6.0,1.0,,,,,,,,,,,,907.5499318000076,909.0295353999971,1.4796035999897867,right,1.0,1.4537325999990571,None,4.0,54:46,1.0,,,,,,,,,,,,,Annie,1 - without skip,"54:46, 51:49","2.0s, 1.5s",2023-07-19_14h50.37.397,Rewa's Exp,2023.1.2,59.99649620587999,,1.0,None,right,1.4537325999990571
2.0,green,red,left,Countdown_2s.jpg,9.0,0.0,9.0,0.0,0.0,0.0,0.0,2.0,0.0,0.0,0.0,1.0,1.0,3.0,7.0,3.0,,,,,,,,,,,,912.9412396999978,914.6464581000037,1.7052184000058332,left,1.0,1.686640899992199,None,5.0,54:46,1.0,,,,,,,,,,,,,Annie,1 - without skip,"54:46, 51:49","2.0s, 1.5s",2023-07-19_14h50.37.397,Rewa's Exp,2023.1.2,59.99649620587999,,1.0,None,left,1.686640899992199
1.5,red,green,right,Countdown_1.5s.jpg,9.0,0.0,9.0,0.0,0.0,0.0,0.0,2.0,0.0,0.0,0.0,1.0,,,,,0.0,0.0,0.0,0.0,,,,,,,,918.5529588000064,919.7131274999992,1.160168699992937,,,,,6.0,51:49,1.0,right,1.0,1.1293151999998372,None,,,,,,,,,Annie,1 - without skip,"54:46, 51:49","2.0s, 1.5s",2023-07-19_14h50.37.397,Rewa's Exp,2023.1.2,59.99649620587999,,1.0,None,right,1.1293151999998372
2.0,green,red,left,Countdown_2s.jpg,9.0,0.0,9.0,0.0,0.0,0.0,0.0,2.0,0.0,0.0,0.0,1.0,,,,,0.0,1.0,1.0,3.0,,,,,,,,923.6351549999964,924.9799323000044,1.3447773000079906,,,,,7.0,51:49,1.0,left,1.0,1.319429900002433,None,,,,,,,,,Annie,1 - without skip,"54:46, 51:49","2.0s, 1.5s",2023-07-19_14h50.37.397,Rewa's Exp,2023.1.2,59.99649620587999,,1.0,None,left,1.319429900002433
2.0,red,green,right,Countdown_2s.jpg,9.0,0.0,9.0,0.0,0.0,0.0,0.0,2.0,0.0,0.0,0.0,1.0,,,,,0.0,2.0,2.0,1.0,,,,,,,,928.8768420999986,930.1469631000072,1.2701210000086576,,,,,8.0,51:49,1.0,right,1.0,1.2462516000086907,None,,,,,,,,,Annie,1 - without skip,"54:46, 51:49","2.0s, 1.5s",2023-07-19_14h50.37.397,Rewa's Exp,2023.1.2,59.99649620587999,,1.0,None,right,1.2462516000086907
1.5,green,red,left,Countdown_1.5s.jpg,9.0,0.0,9.0,0.0,0.0,0.0,0.0,2.0,0.0,0.0,0.0,1.0,,,,,0.0,3.0,3.0,2.0,,,,,,,,934.0678645000008,935.3629817000036,1.2951172000030056,,,,,6.0,51:49,-2.0,right,0.0,1.2718172000022605,None,,,,,,,,,Annie,1 - without skip,"54:46, 51:49","2.0s, 1.5s",2023-07-19_14h50.37.397,Rewa's Exp,2023.1.2,59.99649620587999,,0.0,None,right,1.2718172000022605
2.0,red,green,right,Countdown_2s.jpg,9.0,0.0,9.0,0.0,0.0,0.0,0.0,2.0,0.0,0.0,0.0,1.0,,,,,1.0,0.0,4.0,1.0,,,,,,,,939.269897300008,940.7298760999984,1.4599787999904947,,,,,7.0,51:49,1.0,right,1.0,1.4279187000065576,None,,,,,,,,,Annie,1 - without skip,"54:46, 51:49","2.0s, 1.5s",2023-07-19_14h50.37.397,Rewa's Exp,2023.1.2,59.99649620587999,,1.0,None,right,1.4279187000065576
2.0,green,red,left,Countdown_2s.jpg,9.0,0.0,9.0,0.0,0.0,0.0,0.0,2.0,0.0,0.0,0.0,1.0,,,,,1.0,1.0,5.0,3.0,,,,,,,,944.6278351000074,946.229686599996,1.6018514999886977,,,,,5.0,51:49,-2.0,right,0.0,1.5740869000001112,None,,,,,,,,,Annie,1 - without skip,"54:46, 51:49","2.0s, 1.5s",2023-07-19_14h50.37.397,Rewa's Exp,2023.1.2,59.99649620587999,,0.0,None,right,1.5740869000001112
1.5,green,red,left,Countdown_1.5s.jpg,9.0,0.0,9.0,0.0,0.0,0.0,0.0,2.0,0.0,0.0,0.0,1.0,,,,,1.0,2.0,6.0,2.0,,,,,,,,950.1475748000084,951.4131399000034,1.2655650999950012,,,,,3.0,51:49,-2.0,right,0.0,1.2394589000032283,None,,,,,,,,,Annie,1 - without skip,"54:46, 51:49","2.0s, 1.5s",2023-07-19_14h50.37.397,Rewa's Exp,2023.1.2,59.99649620587999,,0.0,None,right,1.2394589000032283
1.5,red,green,right,Countdown_1.5s.jpg,9.0,0.0,9.0,0.0,0.0,0.0,0.0,2.0,0.0,0.0,0.0,1.0,,,,,1.0,3.0,7.0,0.0,,,,,,,,955.2998297000012,956.663046200003,1.363216500001727,,,,,4.0,51:49,1.0,right,1.0,1.3350121999974365,None,,,,,,,,,Annie,1 - without skip,"54:46, 51:49","2.0s, 1.5s",2023-07-19_14h50.37.397,Rewa's Exp,2023.1.2,59.99649620587999,,1.0,None,right,1.3350121999974365
1.5,green,red,left,Countdown_1.5s.jpg,10.0,0.0,10.0,0.0,0.0,0.0,0.0,2.0,0.0,0.0,0.0,0.0,0.0,0.0,0.0,2.0,,,,,,,,,,,,1056.8700110000063,1058.212997499999,1.3429864999925485,left,1.0,1.3163768000085838,None,5.0,54:46,1.0,,,,,,,,,,,,,Annie,1 - without skip,"54:46, 51:49","2.0s, 1.5s",2023-07-19_14h50.37.397,Rewa's Exp,2023.1.2,59.99649620587999,,1.0,None,left,1.3163768000085838
1.5,red,green,right,Countdown_1.5s.jpg,10.0,0.0,10.0,0.0,0.0,0.0,0.0,2.0,0.0,0.0,0.0,0.0,0.0,1.0,1.0,0.0,,,,,,,,,,,,1062.1341269999975,1063.6298133000091,1.4956863000115843,None,0.0,,None,3.0,54:46,-2.0,,,,,,,,,,,,,Annie,1 - without skip,"54:46, 51:49","2.0s, 1.5s",2023-07-19_14h50.37.397,Rewa's Exp,2023.1.2,59.99649620587999,,-1.0,None,None,
2.0,red,green,right,Countdown_2s.jpg,10.0,0.0,10.0,0.0,0.0,0.0,0.0,2.0,0.0,0.0,0.0,0.0,0.0,2.0,2.0,1.0,,,,,,,,,,,,1067.5408093000003,1069.3129552000028,1.772145900002215,left,0.0,1.7490179000014905,None,1.0,54:46,-2.0,,,,,,,,,,,,,Annie,1 - without skip,"54:46, 51:49","2.0s, 1.5s",2023-07-19_14h50.37.397,Rewa's Exp,2023.1.2,59.99649620587999,,0.0,None,left,1.7490179000014905
2.0,green,red,left,Countdown_2s.jpg,10.0,0.0,10.0,0.0,0.0,0.0,0.0,2.0,0.0,0.0,0.0,0.0,0.0,3.0,3.0,3.0,,,,,,,,,,,,1073.2075676999957,1074.5795583,1.37199060000421,left,1.0,1.3475461000052746,None,2.0,54:46,1.0,,,,,,,,,,,,,Annie,1 - without skip,"54:46, 51:49","2.0s, 1.5s",2023-07-19_14h50.37.397,Rewa's Exp,2023.1.2,59.99649620587999,,1.0,None,left,1.3475461000052746
1.5,red,green,right,Countdown_1.5s.jpg,10.0,0.0,10.0,0.0,0.0,0.0,0.0,2.0,0.0,0.0,0.0,0.0,1.0,0.0,4.0,0.0,,,,,,,,,,,,1078.527908300006,1079.346281200007,0.8183729000011226,right,1.0,0.7945654999930412,None,3.0,54:46,1.0,,,,,,,,,,,,,Annie,1 - without skip,"54:46, 51:49","2.0s, 1.5s",2023-07-19_14h50.37.397,Rewa's Exp,2023.1.2,59.99649620587999,,1.0,None,right,0.7945654999930412
1.5,green,red,left,Countdown_1.5s.jpg,10.0,0.0,10.0,0.0,0.0,0.0,0.0,2.0,0.0,0.0,0.0,0.0,1.0,1.0,5.0,2.0,,,,,,,,,,,,1083.2372149000005,1084.7298383000016,1.492623400001321,left,1.0,1.4847492999979297,None,4.0,54:46,1.0,,,,,,,,,,,,,Annie,1 - without skip,"54:46, 51:49","2.0s, 1.5s",2023-07-19_14h50.37.397,Rewa's Exp,2023.1.2,59.99649620587999,,1.0,None,left,1.4847492999979297
2.0,red,green,right,Countdown_2s.jpg,10.0,0.0,10.0,0.0,0.0,0.0,0.0,2.0,0.0,0.0,0.0,0.0,1.0,2.0,6.0,1.0,,,,,,,,,,,,1088.6604226000054,1089.429757000005,0.7693343999999342,right,1.0,0.7498189000034472,None,5.0,54:46,1.0,,,,,,,,,,,,,Annie,1 - without skip,"54:46, 51:49","2.0s, 1.5s",2023-07-19_14h50.37.397,Rewa's Exp,2023.1.2,59.99649620587999,,1.0,None,right,0.7498189000034472
2.0,green,red,left,Countdown_2s.jpg,10.0,0.0,10.0,0.0,0.0,0.0,0.0,2.0,0.0,0.0,0.0,0.0,1.0,3.0,7.0,3.0,,,,,,,,,,,,1093.387627700009,1094.9295388000028,1.5419110999937402,left,1.0,1.5193215000035707,None,6.0,54:46,1.0,,,,,,,,,,,,,Annie,1 - without skip,"54:46, 51:49","2.0s, 1.5s",2023-07-19_14h50.37.397,Rewa's Exp,2023.1.2,59.99649620587999,,1.0,None,left,1.5193215000035707
2.0,green,red,left,Countdown_2s.jpg,10.0,0.0,10.0,0.0,0.0,0.0,0.0,2.0,0.0,0.0,0.0,0.0,,,,,0.0,0.0,0.0,3.0,,,,,,,,1098.8417657999962,1100.6131102000072,1.771344400011003,,,,,7.0,51:49,1.0,left,1.0,1.7438798999937717,None,,,,,,,,,Annie,1 - without skip,"54:46, 51:49","2.0s, 1.5s",2023-07-19_14h50.37.397,Rewa's Exp,2023.1.2,59.99649620587999,,1.0,None,left,1.7438798999937717
1.5,green,red,left,Countdown_1.5s.jpg,10.0,0.0,10.0,0.0,0.0,0.0,0.0,2.0,0.0,0.0,0.0,0.0,,,,,0.0,1.0,1.0,2.0,,,,,,,,1104.572466199999,1105.946581600001,1.374115400001756,,,,,5.0,51:49,-2.0,right,0.0,1.3495121000159995,None,,,,,,,,,Annie,1 - without skip,"54:46, 51:49","2.0s, 1.5s",2023-07-19_14h50.37.397,Rewa's Exp,2023.1.2,59.99649620587999,,0.0,None,right,1.3495121000159995
2.0,red,green,right,Countdown_2s.jpg,10.0,0.0,10.0,0.0,0.0,0.0,0.0,2.0,0.0,0.0,0.0,0.0,,,,,0.0,2.0,2.0,1.0,,,,,,,,1109.8909394000077,1110.8464415000053,0.9555020999978296,,,,,3.0,51:49,-2.0,left,0.0,0.936142500009737,None,,,,,,,,,Annie,1 - without skip,"54:46, 51:49","2.0s, 1.5s",2023-07-19_14h50.37.397,Rewa's Exp,2023.1.2,59.99649620587999,,0.0,None,left,0.936142500009737
1.5,red,green,right,Countdown_1.5s.jpg,10.0,0.0,10.0,0.0,0.0,0.0,0.0,2.0,0.0,0.0,0.0,0.0,,,,,0.0,3.0,3.0,0.0,,,,,,,,1114.8150674000062,1115.9962128000043,1.1811453999980586,,,,,4.0,51:49,1.0,right,1.0,1.164235699994606,None,,,,,,,,,Annie,1 - without skip,"54:46, 51:49","2.0s, 1.5s",2023-07-19_14h50.37.397,Rewa's Exp,2023.1.2,59.99649620587999,,1.0,None,right,1.164235699994606
1.5,green,red,left,Countdown_1.5s.jpg,10.0,0.0,10.0,0.0,0.0,0.0,0.0,2.0,0.0,0.0,0.0,0.0,,,,,1.0,0.0,4.0,2.0,,,,,,,,1119.8881832000045,1121.0961611999955,1.2079779999912716,,,,,2.0,51:49,-2.0,right,0.0,1.1777968000096737,None,,,,,,,,,Annie,1 - without skip,"54:46, 51:49","2.0s, 1.5s",2023-07-19_14h50.37.397,Rewa's Exp,2023.1.2,59.99649620587999,,0.0,None,right,1.1777968000096737
2.0,red,green,right,Countdown_2s.jpg,10.0,0.0,10.0,0.0,0.0,0.0,0.0,2.0,0.0,0.0,0.0,0.0,,,,,1.0,1.0,5.0,1.0,,,,,,,,1125.0103783000086,1126.8294885000068,1.8191101999982493,,,,,3.0,51:49,1.0,right,1.0,1.7909911000024294,None,,,,,,,,,Annie,1 - without skip,"54:46, 51:49","2.0s, 1.5s",2023-07-19_14h50.37.397,Rewa's Exp,2023.1.2,59.99649620587999,,1.0,None,right,1.7909911000024294
2.0,green,red,left,Countdown_2s.jpg,10.0,0.0,10.0,0.0,0.0,0.0,0.0,2.0,0.0,0.0,0.0,0.0,,,,,1.0,2.0,6.0,3.0,,,,,,,,1130.743817299997,1132.4129648999951,1.6691475999978138,,,,,4.0,51:49,1.0,left,1.0,1.6517860000021756,None,,,,,,,,,Annie,1 - without skip,"54:46, 51:49","2.0s, 1.5s",2023-07-19_14h50.37.397,Rewa's Exp,2023.1.2,59.99649620587999,,1.0,None,left,1.6517860000021756
1.5,red,green,right,Countdown_1.5s.jpg,10.0,0.0,10.0,0.0,0.0,0.0,0.0,2.0,0.0,0.0,0.0,0.0,,,,,1.0,3.0,7.0,0.0,,,,,,,,1136.3737439999968,1137.429728999996,1.0559849999990547,,,,,2.0,51:49,-2.0,left,0.0,1.0365144000097644,None,,,,,,,,,Annie,1 - without skip,"54:46, 51:49","2.0s, 1.5s",2023-07-19_14h50.37.397,Rewa's Exp,2023.1.2,59.99649620587999,,0.0,None,left,1.0365144000097644
2.0,green,red,left,Countdown_2s.jpg,11.0,0.0,11.0,0.0,0.0,0.0,0.0,2.0,0.0,0.0,0.0,1.0,0.0,0.0,0.0,3.0,,,,,,,,,,,,1142.8857019999996,1144.6306829999958,1.7449809999961872,right,0.0,1.726057200008654,None,0.0,54:46,-2.0,,,,,,,,,,,,,Annie,1 - without skip,"54:46, 51:49","2.0s, 1.5s",2023-07-19_14h50.37.397,Rewa's Exp,2023.1.2,59.99649620587999,,0.0,None,right,1.726057200008654
1.5,green,red,left,Countdown_1.5s.jpg,11.0,0.0,11.0,0.0,0.0,0.0,0.0,2.0,0.0,0.0,0.0,1.0,0.0,1.0,1.0,2.0,,,,,,,,,,,,1148.5918995999964,1149.6799160000082,1.0880164000118384,left,1.0,1.057770800005528,None,1.0,54:46,1.0,,,,,,,,,,,,,Annie,1 - without skip,"54:46, 51:49","2.0s, 1.5s",2023-07-19_14h50.37.397,Rewa's Exp,2023.1.2,59.99649620587999,,1.0,None,left,1.057770800005528
1.5,red,green,right,Countdown_1.5s.jpg,11.0,0.0,11.0,0.0,0.0,0.0,0.0,2.0,0.0,0.0,0.0,1.0,0.0,2.0,2.0,0.0,,,,,,,,,,,,1153.633384000001,1154.7962397000083,1.1628557000076398,right,1.0,1.1456753000093158,None,2.0,54:46,1.0,,,,,,,,,,,,,Annie,1 - without skip,"54:46, 51:49","2.0s, 1.5s",2023-07-19_14h50.37.397,Rewa's Exp,2023.1.2,59.99649620587999,,1.0,None,right,1.1456753000093158
2.0,red,green,right,Countdown_2s.jpg,11.0,0.0,11.0,0.0,0.0,0.0,0.0,2.0,0.0,0.0,0.0,1.0,0.0,3.0,3.0,1.0,,,,,,,,,,,,1158.7220231999963,1160.429700000008,1.7076768000115408,left,0.0,1.6894723000004888,None,0.0,54:46,-2.0,,,,,,,,,,,,,Annie,1 - without skip,"54:46, 51:49","2.0s, 1.5s",2023-07-19_14h50.37.397,Rewa's Exp,2023.1.2,59.99649620587999,,0.0,None,left,1.6894723000004888
1.5,red,green,right,Countdown_1.5s.jpg,11.0,0.0,11.0,0.0,0.0,0.0,0.0,2.0,0.0,0.0,0.0,1.0,1.0,0.0,4.0,0.0,,,,,,,,,,,,1164.3321190999995,1165.7677059999987,1.43558689999918,left,0.0,1.4132443999988027,None,-2.0,54:46,-2.0,,,,,,,,,,,,,Annie,1 - without skip,"54:46, 51:49","2.0s, 1.5s",2023-07-19_14h50.37.397,Rewa's Exp,2023.1.2,59.99649620587999,,0.0,None,left,1.4132443999988027
2.0,green,red,left,Countdown_2s.jpg,11.0,0.0,11.0,0.0,0.0,0.0,0.0,2.0,0.0,0.0,0.0,1.0,1.0,1.0,5.0,3.0,,,,,,,,,,,,1169.6878432000085,1171.2961420000065,1.6082987999980105,right,0.0,1.5856496000051266,None,-4.0,54:46,-2.0,,,,,,,,,,,,,Annie,1 - without skip,"54:46, 51:49","2.0s, 1.5s",2023-07-19_14h50.37.397,Rewa's Exp,2023.1.2,59.99649620587999,,0.0,None,right,1.5856496000051266
1.5,green,red,left,Countdown_1.5s.jpg,11.0,0.0,11.0,0.0,0.0,0.0,0.0,2.0,0.0,0.0,0.0,1.0,1.0,2.0,6.0,2.0,,,,,,,,,,,,1175.2438939999993,1176.5296852000029,1.2857912000035867,left,1.0,1.261783200010541,None,-3.0,54:46,1.0,,,,,,,,,,,,,Annie,1 - without skip,"54:46, 51:49","2.0s, 1.5s",2023-07-19_14h50.37.397,Rewa's Exp,2023.1.2,59.99649620587999,,1.0,None,left,1.261783200010541
2.0,red,green,right,Countdown_2s.jpg,11.0,0.0,11.0,0.0,0.0,0.0,0.0,2.0,0.0,0.0,0.0,1.0,1.0,3.0,7.0,1.0,,,,,,,,,,,,1180.4397736999963,1181.7465736000013,1.3067999000049897,right,1.0,1.2829164000140736,None,-2.0,54:46,1.0,,,,,,,,,,,,,Annie,1 - without skip,"54:46, 51:49","2.0s, 1.5s",2023-07-19_14h50.37.397,Rewa's Exp,2023.1.2,59.99649620587999,,1.0,None,right,1.2829164000140736
1.5,red,green,right,Countdown_1.5s.jpg,11.0,0.0,11.0,0.0,0.0,0.0,0.0,2.0,0.0,0.0,0.0,1.0,,,,,0.0,0.0,0.0,0.0,,,,,,,,1185.6750690000044,1187.0964855000057,1.4214165000012144,,,,,-1.0,51:49,1.0,right,1.0,1.390503600006923,None,,,,,,,,,Annie,1 - without skip,"54:46, 51:49","2.0s, 1.5s",2023-07-19_14h50.37.397,Rewa's Exp,2023.1.2,59.99649620587999,,1.0,None,right,1.390503600006923
2.0,red,green,right,Countdown_2s.jpg,11.0,0.0,11.0,0.0,0.0,0.0,0.0,2.0,0.0,0.0,0.0,1.0,,,,,0.0,1.0,1.0,1.0,,,,,,,,1190.979620500002,1192.6965538000077,1.7169333000056213,,,,,0.0,51:49,1.0,right,1.0,1.6862512000079732,None,,,,,,,,,Annie,1 - without skip,"54:46, 51:49","2.0s, 1.5s",2023-07-19_14h50.37.397,Rewa's Exp,2023.1.2,59.99649620587999,,1.0,None,right,1.6862512000079732
1.5,green,red,left,Countdown_1.5s.jpg,11.0,0.0,11.0,0.0,0.0,0.0,0.0,2.0,0.0,0.0,0.0,1.0,,,,,0.0,2.0,2.0,2.0,,,,,,,,1196.6742721000046,1198.046521099997,1.3722489999927348,,,,,-2.0,51:49,-2.0,right,0.0,1.3440620000037595,None,,,,,,,,,Annie,1 - without skip,"54:46, 51:49","2.0s, 1.5s",2023-07-19_14h50.37.397,Rewa's Exp,2023.1.2,59.99649620587999,,0.0,None,right,1.3440620000037595
2.0,green,red,left,Countdown_2s.jpg,11.0,0.0,11.0,0.0,0.0,0.0,0.0,2.0,0.0,0.0,0.0,1.0,,,,,0.0,3.0,3.0,3.0,,,,,,,,1201.9884578000056,1203.479473200001,1.4910153999953764,,,,,-1.0,51:49,1.0,left,1.0,1.4607088000047952,None,,,,,,,,,Annie,1 - without skip,"54:46, 51:49","2.0s, 1.5s",2023-07-19_14h50.37.397,Rewa's Exp,2023.1.2,59.99649620587999,,1.0,None,left,1.4607088000047952
1.5,green,red,left,Countdown_1.5s.jpg,11.0,0.0,11.0,0.0,0.0,0.0,0.0,2.0,0.0,0.0,0.0,1.0,,,,,1.0,0.0,4.0,2.0,,,,,,,,1207.4274533999996,1208.3963139999978,0.968860599998152,,,,,0.0,51:49,1.0,left,1.0,0.9418276000069454,None,,,,,,,,,Annie,1 - without skip,"54:46, 51:49","2.0s, 1.5s",2023-07-19_14h50.37.397,Rewa's Exp,2023.1.2,59.99649620587999,,1.0,None,left,0.9418276000069454
1.5,red,green,right,Countdown_1.5s.jpg,11.0,0.0,11.0,0.0,0.0,0.0,0.0,2.0,0.0,0.0,0.0,1.0,,,,,1.0,1.0,5.0,0.0,,,,,,,,1212.316083400001,1213.6794765000086,1.36339310000767,,,,,-2.0,51:49,-2.0,left,0.0,1.342614200009848,None,,,,,,,,,Annie,1 - without skip,"54:46, 51:49","2.0s, 1.5s",2023-07-19_14h50.37.397,Rewa's Exp,2023.1.2,59.99649620587999,,0.0,None,left,1.342614200009848
2.0,green,red,left,Countdown_2s.jpg,11.0,0.0,11.0,0.0,0.0,0.0,0.0,2.0,0.0,0.0,0.0,1.0,,,,,1.0,2.0,6.0,3.0,,,,,,,,1217.630362900003,1219.3129524999968,1.682589599993662,,,,,-1.0,51:49,1.0,left,1.0,1.651402800009237,None,,,,,,,,,Annie,1 - without skip,"54:46, 51:49","2.0s, 1.5s",2023-07-19_14h50.37.397,Rewa's Exp,2023.1.2,59.99649620587999,,1.0,None,left,1.651402800009237
2.0,red,green,right,Countdown_2s.jpg,11.0,0.0,11.0,0.0,0.0,0.0,0.0,2.0,0.0,0.0,0.0,1.0,,,,,1.0,3.0,7.0,1.0,,,,,,,,1223.2260327999977,1224.429393700004,1.2033609000063734,,,,,-3.0,51:49,-2.0,left,0.0,1.1841130000102569,None,,,,,,,,,Annie,1 - without skip,"54:46, 51:49","2.0s, 1.5s",2023-07-19_14h50.37.397,Rewa's Exp,2023.1.2,59.99649620587999,,0.0,None,left,1.1841130000102569
1.5,red,green,right,Countdown_1.5s.jpg,12.0,0.0,12.0,0.0,0.0,0.0,0.0,0.0,0.0,0.0,0.0,3.0,0.0,0.0,0.0,0.0,,,,,,,,,,,,1230.1082008000085,1231.1796852999978,1.0714844999893105,right,1.0,1.0542458000127226,None,-2.0,54:46,1.0,,,,,,,,,,,,,Annie,1 - without skip,"54:46, 51:49","2.0s, 1.5s",2023-07-19_14h50.37.397,Rewa's Exp,2023.1.2,59.99649620587999,,1.0,None,right,1.0542458000127226
2.0,green,red,left,Countdown_2s.jpg,12.0,0.0,12.0,0.0,0.0,0.0,0.0,0.0,0.0,0.0,0.0,3.0,0.0,1.0,1.0,3.0,,,,,,,,,,,,1235.090039200004,1236.6130101000017,1.5229708999977447,left,1.0,1.495324100003927,None,-1.0,54:46,1.0,,,,,,,,,,,,,Annie,1 - without skip,"54:46, 51:49","2.0s, 1.5s",2023-07-19_14h50.37.397,Rewa's Exp,2023.1.2,59.99649620587999,,1.0,None,left,1.495324100003927
1.5,green,red,left,Countdown_1.5s.jpg,12.0,0.0,12.0,0.0,0.0,0.0,0.0,0.0,0.0,0.0,0.0,3.0,0.0,2.0,2.0,2.0,,,,,,,,,,,,1240.533261100005,1241.6294751999958,1.0962140999909025,right,0.0,1.0686872000078438,None,-3.0,54:46,-2.0,,,,,,,,,,,,,Annie,1 - without skip,"54:46, 51:49","2.0s, 1.5s",2023-07-19_14h50.37.397,Rewa's Exp,2023.1.2,59.99649620587999,,0.0,None,right,1.0686872000078438
2.0,red,green,right,Countdown_2s.jpg,12.0,0.0,12.0,0.0,0.0,0.0,0.0,0.0,0.0,0.0,0.0,3.0,0.0,3.0,3.0,1.0,,,,,,,,,,,,1245.5238948000042,1246.5794563999953,1.0555615999910517,right,1.0,1.029751699999906,None,-2.0,54:46,1.0,,,,,,,,,,,,,Annie,1 - without skip,"54:46, 51:49","2.0s, 1.5s",2023-07-19_14h50.37.397,Rewa's Exp,2023.1.2,59.99649620587999,,1.0,None,right,1.029751699999906
2.0,red,green,right,Countdown_2s.jpg,12.0,0.0,12.0,0.0,0.0,0.0,0.0,0.0,0.0,0.0,0.0,3.0,1.0,0.0,4.0,1.0,,,,,,,,,,,,1250.4792864000046,1252.1794182000012,1.7001317999965977,right,1.0,1.682564500006265,None,-1.0,54:46,1.0,,,,,,,,,,,,,Annie,1 - without skip,"54:46, 51:49","2.0s, 1.5s",2023-07-19_14h50.37.397,Rewa's Exp,2023.1.2,59.99649620587999,,1.0,None,right,1.682564500006265
2.0,green,red,left,Countdown_2s.jpg,12.0,0.0,12.0,0.0,0.0,0.0,0.0,0.0,0.0,0.0,0.0,3.0,1.0,1.0,5.0,3.0,,,,,,,,,,,,1256.0758434000018,1257.713002000004,1.6371586000022944,left,1.0,1.6138034000032349,None,0.0,54:46,1.0,,,,,,,,,,,,,Annie,1 - without skip,"54:46, 51:49","2.0s, 1.5s",2023-07-19_14h50.37.397,Rewa's Exp,2023.1.2,59.99649620587999,,1.0,None,left,1.6138034000032349
1.5,green,red,left,Countdown_1.5s.jpg,12.0,0.0,12.0,0.0,0.0,0.0,0.0,0.0,0.0,0.0,0.0,3.0,1.0,2.0,6.0,2.0,,,,,,,,,,,,1261.6301854000048,1262.9462254999962,1.316040099991369,right,0.0,1.2922014000068884,None,-2.0,54:46,-2.0,,,,,,,,,,,,,Annie,1 - without skip,"54:46, 51:49","2.0s, 1.5s",2023-07-19_14h50.37.397,Rewa's Exp,2023.1.2,59.99649620587999,,0.0,None,right,1.2922014000068884
1.5,red,green,right,Countdown_1.5s.jpg,12.0,0.0,12.0,0.0,0.0,0.0,0.0,0.0,0.0,0.0,0.0,3.0,1.0,3.0,7.0,0.0,,,,,,,,,,,,1266.9106858000014,1267.8130586000043,0.9023728000029224,right,1.0,0.8841492999927141,None,-1.0,54:46,1.0,,,,,,,,,,,,,Annie,1 - without skip,"54:46, 51:49","2.0s, 1.5s",2023-07-19_14h50.37.397,Rewa's Exp,2023.1.2,59.99649620587999,,1.0,None,right,0.8841492999927141
1.5,green,red,left,Countdown_1.5s.jpg,12.0,0.0,12.0,0.0,0.0,0.0,0.0,0.0,0.0,0.0,0.0,3.0,,,,,0.0,0.0,0.0,2.0,,,,,,,,1271.7580548999977,1272.7797922000027,1.021737300005043,,,,,0.0,51:49,1.0,left,1.0,1.003869099993608,None,,,,,,,,,Annie,1 - without skip,"54:46, 51:49","2.0s, 1.5s",2023-07-19_14h50.37.397,Rewa's Exp,2023.1.2,59.99649620587999,,1.0,None,left,1.003869099993608
2.0,red,green,right,Countdown_2s.jpg,12.0,0.0,12.0,0.0,0.0,0.0,0.0,0.0,0.0,0.0,0.0,3.0,,,,,0.0,1.0,1.0,1.0,,,,,,,,1276.6818686000042,1278.1134647,1.4315960999956587,,,,,1.0,51:49,1.0,right,1.0,1.4083965000027092,None,,,,,,,,,Annie,1 - without skip,"54:46, 51:49","2.0s, 1.5s",2023-07-19_14h50.37.397,Rewa's Exp,2023.1.2,59.99649620587999,,1.0,None,right,1.4083965000027092
1.5,red,green,right,Countdown_1.5s.jpg,12.0,0.0,12.0,0.0,0.0,0.0,0.0,0.0,0.0,0.0,0.0,3.0,,,,,0.0,2.0,2.0,0.0,,,,,,,,1282.027203500009,1283.3628125999967,1.335609099987778,,,,,-1.0,51:49,-2.0,left,0.0,1.3182938999962062,None,,,,,,,,,Annie,1 - without skip,"54:46, 51:49","2.0s, 1.5s",2023-07-19_14h50.37.397,Rewa's Exp,2023.1.2,59.99649620587999,,0.0,None,left,1.3182938999962062
2.0,green,red,left,Countdown_2s.jpg,12.0,0.0,12.0,0.0,0.0,0.0,0.0,0.0,0.0,0.0,0.0,3.0,,,,,0.0,3.0,3.0,3.0,,,,,,,,1287.2839671999973,1288.8129257999972,1.5289585999998965,,,,,0.0,51:49,1.0,left,1.0,1.5012866000033682,None,,,,,,,,,Annie,1 - without skip,"54:46, 51:49","2.0s, 1.5s",2023-07-19_14h50.37.397,Rewa's Exp,2023.1.2,59.99649620587999,,1.0,None,left,1.5012866000033682
2.0,red,green,right,Countdown_2s.jpg,12.0,0.0,12.0,0.0,0.0,0.0,0.0,0.0,0.0,0.0,0.0,3.0,,,,,1.0,0.0,4.0,1.0,,,,,,,,1292.7703783000034,1293.579578200006,0.809199900002568,,,,,1.0,51:49,1.0,right,1.0,0.7829589000029955,None,,,,,,,,,Annie,1 - without skip,"54:46, 51:49","2.0s, 1.5s",2023-07-19_14h50.37.397,Rewa's Exp,2023.1.2,59.99649620587999,,1.0,None,right,0.7829589000029955
1.5,green,red,left,Countdown_1.5s.jpg,12.0,0.0,12.0,0.0,0.0,0.0,0.0,0.0,0.0,0.0,0.0,3.0,,,,,1.0,1.0,5.0,2.0,,,,,,,,1297.5321242000064,1298.7127848999953,1.1806606999889482,,,,,2.0,51:49,1.0,left,1.0,1.1582288000063272,None,,,,,,,,,Annie,1 - without skip,"54:46, 51:49","2.0s, 1.5s",2023-07-19_14h50.37.397,Rewa's Exp,2023.1.2,59.99649620587999,,1.0,None,left,1.1582288000063272
2.0,green,red,left,Countdown_2s.jpg,12.0,0.0,12.0,0.0,0.0,0.0,0.0,0.0,0.0,0.0,0.0,3.0,,,,,1.0,2.0,6.0,3.0,,,,,,,,1302.6356277000014,1304.0962081000034,1.4605804000020726,,,,,3.0,51:49,1.0,left,1.0,1.438789200008614,None,,,,,,,,,Annie,1 - without skip,"54:46, 51:49","2.0s, 1.5s",2023-07-19_14h50.37.397,Rewa's Exp,2023.1.2,59.99649620587999,,1.0,None,left,1.438789200008614
1.5,red,green,right,Countdown_1.5s.jpg,12.0,0.0,12.0,0.0,0.0,0.0,0.0,0.0,0.0,0.0,0.0,3.0,,,,,1.0,3.0,7.0,0.0,,,,,,,,1307.982606999998,1309.1294381000043,1.1468311000062386,,,,,4.0,51:49,1.0,right,1.0,1.123194900006638,None,,,,,,,,,Annie,1 - without skip,"54:46, 51:49","2.0s, 1.5s",2023-07-19_14h50.37.397,Rewa's Exp,2023.1.2,59.99649620587999,,1.0,None,right,1.123194900006638
1.5,green,red,left,Countdown_1.5s.jpg,13.0,0.0,13.0,0.0,0.0,0.0,0.0,0.0,0.0,0.0,0.0,3.0,0.0,0.0,0.0,2.0,,,,,,,,,,,,1314.5269171999971,1315.7796008000005,1.2526836000033654,right,0.0,1.2192818000039551,None,2.0,54:46,-2.0,,,,,,,,,,,,,Annie,1 - without skip,"54:46, 51:49","2.0s, 1.5s",2023-07-19_14h50.37.397,Rewa's Exp,2023.1.2,59.99649620587999,,0.0,None,right,1.2192818000039551
2.0,green,red,left,Countdown_2s.jpg,13.0,0.0,13.0,0.0,0.0,0.0,0.0,0.0,0.0,0.0,0.0,3.0,0.0,1.0,1.0,3.0,,,,,,,,,,,,1319.7271492,1321.363115,1.6359658000001218,left,1.0,1.611505000008037,None,3.0,54:46,1.0,,,,,,,,,,,,,Annie,1 - without skip,"54:46, 51:49","2.0s, 1.5s",2023-07-19_14h50.37.397,Rewa's Exp,2023.1.2,59.99649620587999,,1.0,None,left,1.611505000008037
2.0,red,green,right,Countdown_2s.jpg,13.0,0.0,13.0,0.0,0.0,0.0,0.0,0.0,0.0,0.0,0.0,3.0,0.0,2.0,2.0,1.0,,,,,,,,,,,,1325.289594300004,1326.3464674999996,1.0568731999956071,right,1.0,1.032454500003951,None,4.0,54:46,1.0,,,,,,,,,,,,,Annie,1 - without skip,"54:46, 51:49","2.0s, 1.5s",2023-07-19_14h50.37.397,Rewa's Exp,2023.1.2,59.99649620587999,,1.0,None,right,1.032454500003951
1.5,red,green,right,Countdown_1.5s.jpg,13.0,0.0,13.0,0.0,0.0,0.0,0.0,0.0,0.0,0.0,0.0,3.0,0.0,3.0,3.0,0.0,,,,,,,,,,,,1330.265656500007,1331.529343400005,1.2636868999979924,right,1.0,1.2323933000152465,None,5.0,54:46,1.0,,,,,,,,,,,,,Annie,1 - without skip,"54:46, 51:49","2.0s, 1.5s",2023-07-19_14h50.37.397,Rewa's Exp,2023.1.2,59.99649620587999,,1.0,None,right,1.2323933000152465
2.0,green,red,left,Countdown_2s.jpg,13.0,0.0,13.0,0.0,0.0,0.0,0.0,0.0,0.0,0.0,0.0,3.0,1.0,0.0,4.0,3.0,,,,,,,,,,,,1335.422584400003,1336.9628503999993,1.5402659999963362,left,1.0,1.5159280000079889,None,6.0,54:46,1.0,,,,,,,,,,,,,Annie,1 - without skip,"54:46, 51:49","2.0s, 1.5s",2023-07-19_14h50.37.397,Rewa's Exp,2023.1.2,59.99649620587999,,1.0,None,left,1.5159280000079889
2.0,red,green,right,Countdown_2s.jpg,13.0,0.0,13.0,0.0,0.0,0.0,0.0,0.0,0.0,0.0,0.0,3.0,1.0,1.0,5.0,1.0,,,,,,,,,,,,1340.870984100009,1342.479245399998,1.6082612999889534,right,1.0,1.5779038000036962,None,7.0,54:46,1.0,,,,,,,,,,,,,Annie,1 - without skip,"54:46, 51:49","2.0s, 1.5s",2023-07-19_14h50.37.397,Rewa's Exp,2023.1.2,59.99649620587999,,1.0,None,right,1.5779038000036962
1.5,red,green,right,Countdown_1.5s.jpg,13.0,0.0,13.0,0.0,0.0,0.0,0.0,0.0,0.0,0.0,0.0,3.0,1.0,2.0,6.0,0.0,,,,,,,,,,,,1346.3720571000013,1347.8129780000015,1.440920900000492,right,1.0,1.4225937000010165,None,8.0,54:46,1.0,,,,,,,,,,,,,Annie,1 - without skip,"54:46, 51:49","2.0s, 1.5s",2023-07-19_14h50.37.397,Rewa's Exp,2023.1.2,59.99649620587999,,1.0,None,right,1.4225937000010165
1.5,green,red,left,Countdown_1.5s.jpg,13.0,0.0,13.0,0.0,0.0,0.0,0.0,0.0,0.0,0.0,0.0,3.0,1.0,3.0,7.0,2.0,,,,,,,,,,,,1351.7324236999991,1353.0627993999951,1.330375699995784,left,1.0,1.3087366000108889,None,9.0,54:46,1.0,,,,,,,,,,,,,Annie,1 - without skip,"54:46, 51:49","2.0s, 1.5s",2023-07-19_14h50.37.397,Rewa's Exp,2023.1.2,59.99649620587999,,1.0,None,left,1.3087366000108889
1.5,green,red,left,Countdown_1.5s.jpg,13.0,0.0,13.0,0.0,0.0,0.0,0.0,0.0,0.0,0.0,0.0,3.0,,,,,0.0,0.0,0.0,2.0,,,,,,,,1356.9905977000017,1358.4795216000057,1.4889239000040106,,,,,7.0,51:49,-2.0,None,0.0,,None,,,,,,,,,Annie,1 - without skip,"54:46, 51:49","2.0s, 1.5s",2023-07-19_14h50.37.397,Rewa's Exp,2023.1.2,59.99649620587999,,-1.0,None,None,
2.0,red,green,right,Countdown_2s.jpg,13.0,0.0,13.0,0.0,0.0,0.0,0.0,0.0,0.0,0.0,0.0,3.0,,,,,0.0,1.0,1.0,1.0,,,,,,,,1362.3911617999984,1364.312847299996,1.921685499997693,,,,,8.0,51:49,1.0,right,1.0,1.889969400013797,None,,,,,,,,,Annie,1 - without skip,"54:46, 51:49","2.0s, 1.5s",2023-07-19_14h50.37.397,Rewa's Exp,2023.1.2,59.99649620587999,,1.0,None,right,1.889969400013797
2.0,green,red,left,Countdown_2s.jpg,13.0,0.0,13.0,0.0,0.0,0.0,0.0,0.0,0.0,0.0,0.0,3.0,,,,,0.0,2.0,2.0,3.0,,,,,,,,1368.2263530000057,1369.8965933,1.6702402999944752,,,,,6.0,51:49,-2.0,right,0.0,1.6391481000027852,None,,,,,,,,,Annie,1 - without skip,"54:46, 51:49","2.0s, 1.5s",2023-07-19_14h50.37.397,Rewa's Exp,2023.1.2,59.99649620587999,,0.0,None,right,1.6391481000027852
1.5,red,green,right,Countdown_1.5s.jpg,13.0,0.0,13.0,0.0,0.0,0.0,0.0,0.0,0.0,0.0,0.0,3.0,,,,,0.0,3.0,3.0,0.0,,,,,,,,1373.8257939000032,1375.145998299995,1.3202043999917803,,,,,7.0,51:49,1.0,right,1.0,1.3033581000054255,None,,,,,,,,,Annie,1 - without skip,"54:46, 51:49","2.0s, 1.5s",2023-07-19_14h50.37.397,Rewa's Exp,2023.1.2,59.99649620587999,,1.0,None,right,1.3033581000054255
1.5,green,red,left,Countdown_1.5s.jpg,13.0,0.0,13.0,0.0,0.0,0.0,0.0,0.0,0.0,0.0,0.0,3.0,,,,,1.0,0.0,4.0,2.0,,,,,,,,1379.0628833000085,1380.429571700006,1.3666883999976562,,,,,8.0,51:49,1.0,left,1.0,1.347626400005538,None,,,,,,,,,Annie,1 - without skip,"54:46, 51:49","2.0s, 1.5s",2023-07-19_14h50.37.397,Rewa's Exp,2023.1.2,59.99649620587999,,1.0,None,left,1.347626400005538
1.5,red,green,right,Countdown_1.5s.jpg,13.0,0.0,13.0,0.0,0.0,0.0,0.0,0.0,0.0,0.0,0.0,3.0,,,,,1.0,1.0,5.0,0.0,,,,,,,,1384.3444670000026,1385.8459710000025,1.5015039999998407,,,,,6.0,51:49,-2.0,None,0.0,,None,,,,,,,,,Annie,1 - without skip,"54:46, 51:49","2.0s, 1.5s",2023-07-19_14h50.37.397,Rewa's Exp,2023.1.2,59.99649620587999,,-1.0,None,None,
2.0,red,green,right,Countdown_2s.jpg,13.0,0.0,13.0,0.0,0.0,0.0,0.0,0.0,0.0,0.0,0.0,3.0,,,,,1.0,2.0,6.0,1.0,,,,,,,,1389.7396960000042,1391.5961486000017,1.856452599997283,,,,,4.0,51:49,-2.0,left,0.0,1.8382139000023017,None,,,,,,,,,Annie,1 - without skip,"54:46, 51:49","2.0s, 1.5s",2023-07-19_14h50.37.397,Rewa's Exp,2023.1.2,59.99649620587999,,0.0,None,left,1.8382139000023017
2.0,green,red,left,Countdown_2s.jpg,13.0,0.0,13.0,0.0,0.0,0.0,0.0,0.0,0.0,0.0,0.0,3.0,,,,,1.0,3.0,7.0,3.0,,,,,,,,1395.4946410999985,1396.895940500006,1.4012994000077017,,,,,5.0,51:49,1.0,left,1.0,1.3792683000065151,None,,,,,,,,,Annie,1 - without skip,"54:46, 51:49","2.0s, 1.5s",2023-07-19_14h50.37.397,Rewa's Exp,2023.1.2,59.99649620587999,,1.0,None,left,1.3792683000065151
2.0,green,red,left,Countdown_2s.jpg,14.0,0.0,14.0,0.0,0.0,0.0,0.0,2.0,0.0,0.0,0.0,0.0,0.0,0.0,0.0,3.0,,,,,,,,,,,,1403.6580527000042,1405.0630268999955,1.4049741999915568,right,0.0,1.3748930000147084,None,3.0,54:46,-2.0,,,,,,,,,,,,,Annie,1 - without skip,"54:46, 51:49","2.0s, 1.5s",2023-07-19_14h50.37.397,Rewa's Exp,2023.1.2,59.99649620587999,,0.0,None,right,1.3748930000147084
2.0,red,green,right,Countdown_2s.jpg,14.0,0.0,14.0,0.0,0.0,0.0,0.0,2.0,0.0,0.0,0.0,0.0,0.0,1.0,1.0,1.0,,,,,,,,,,,,1408.9763335000025,1410.2292285000003,1.2528949999978067,left,0.0,1.2244865999964532,None,1.0,54:46,-2.0,,,,,,,,,,,,,Annie,1 - without skip,"54:46, 51:49","2.0s, 1.5s",2023-07-19_14h50.37.397,Rewa's Exp,2023.1.2,59.99649620587999,,0.0,None,left,1.2244865999964532
1.5,green,red,left,Countdown_1.5s.jpg,14.0,0.0,14.0,0.0,0.0,0.0,0.0,2.0,0.0,0.0,0.0,0.0,0.0,2.0,2.0,2.0,,,,,,,,,,,,1414.1376844000042,1415.1793898000033,1.0417053999990458,left,1.0,1.0153985000069952,None,2.0,54:46,1.0,,,,,,,,,,,,,Annie,1 - without skip,"54:46, 51:49","2.0s, 1.5s",2023-07-19_14h50.37.397,Rewa's Exp,2023.1.2,59.99649620587999,,1.0,None,left,1.0153985000069952
1.5,red,green,right,Countdown_1.5s.jpg,14.0,0.0,14.0,0.0,0.0,0.0,0.0,2.0,0.0,0.0,0.0,0.0,0.0,3.0,3.0,0.0,,,,,,,,,,,,1419.091831400001,1420.2627940999955,1.1709626999945613,right,1.0,1.1495906000054674,None,3.0,54:46,1.0,,,,,,,,,,,,,Annie,1 - without skip,"54:46, 51:49","2.0s, 1.5s",2023-07-19_14h50.37.397,Rewa's Exp,2023.1.2,59.99649620587999,,1.0,None,right,1.1495906000054674
2.0,red,green,right,Countdown_2s.jpg,14.0,0.0,14.0,0.0,0.0,0.0,0.0,2.0,0.0,0.0,0.0,0.0,1.0,0.0,4.0,1.0,,,,,,,,,,,,1424.2110029000032,1425.9631636999984,1.7521607999951812,right,1.0,1.7348384000069927,None,4.0,54:46,1.0,,,,,,,,,,,,,Annie,1 - without skip,"54:46, 51:49","2.0s, 1.5s",2023-07-19_14h50.37.397,Rewa's Exp,2023.1.2,59.99649620587999,,1.0,None,right,1.7348384000069927
1.5,red,green,right,Countdown_1.5s.jpg,14.0,0.0,14.0,0.0,0.0,0.0,0.0,2.0,0.0,0.0,0.0,0.0,1.0,1.0,5.0,0.0,,,,,,,,,,,,1429.9170942000055,1431.4127958000026,1.495701599997119,right,1.0,1.4691224000125658,None,5.0,54:46,1.0,,,,,,,,,,,,,Annie,1 - without skip,"54:46, 51:49","2.0s, 1.5s",2023-07-19_14h50.37.397,Rewa's Exp,2023.1.2,59.99649620587999,,1.0,None,right,1.4691224000125658
2.0,green,red,left,Countdown_2s.jpg,14.0,0.0,14.0,0.0,0.0,0.0,0.0,2.0,0.0,0.0,0.0,0.0,1.0,2.0,6.0,3.0,,,,,,,,,,,,1435.3194743000058,1436.6298392000026,1.3103648999967843,left,1.0,1.289626900004805,None,6.0,54:46,1.0,,,,,,,,,,,,,Annie,1 - without skip,"54:46, 51:49","2.0s, 1.5s",2023-07-19_14h50.37.397,Rewa's Exp,2023.1.2,59.99649620587999,,1.0,None,left,1.289626900004805
1.5,green,red,left,Countdown_1.5s.jpg,14.0,0.0,14.0,0.0,0.0,0.0,0.0,2.0,0.0,0.0,0.0,0.0,1.0,3.0,7.0,2.0,,,,,,,,,,,,1440.5540163999976,1441.7469579000026,1.192941500004963,right,0.0,1.159331300004851,None,4.0,54:46,-2.0,,,,,,,,,,,,,Annie,1 - without skip,"54:46, 51:49","2.0s, 1.5s",2023-07-19_14h50.37.397,Rewa's Exp,2023.1.2,59.99649620587999,,0.0,None,right,1.159331300004851
2.0,red,green,right,Countdown_2s.jpg,14.0,0.0,14.0,0.0,0.0,0.0,0.0,2.0,0.0,0.0,0.0,0.0,,,,,0.0,0.0,0.0,1.0,,,,,,,,1445.6706358000083,1446.9961455000011,1.3255096999928355,,,,,2.0,51:49,-2.0,left,0.0,1.3073262000107206,None,,,,,,,,,Annie,1 - without skip,"54:46, 51:49","2.0s, 1.5s",2023-07-19_14h50.37.397,Rewa's Exp,2023.1.2,59.99649620587999,,0.0,None,left,1.3073262000107206
1.5,red,green,right,Countdown_1.5s.jpg,14.0,0.0,14.0,0.0,0.0,0.0,0.0,2.0,0.0,0.0,0.0,0.0,,,,,0.0,1.0,1.0,0.0,,,,,,,,1450.9017596000049,1451.9795054999995,1.0777458999946248,,,,,3.0,51:49,1.0,right,1.0,1.051179600006435,None,,,,,,,,,Annie,1 - without skip,"54:46, 51:49","2.0s, 1.5s",2023-07-19_14h50.37.397,Rewa's Exp,2023.1.2,59.99649620587999,,1.0,None,right,1.051179600006435
1.5,green,red,left,Countdown_1.5s.jpg,14.0,0.0,14.0,0.0,0.0,0.0,0.0,2.0,0.0,0.0,0.0,0.0,,,,,0.0,2.0,2.0,2.0,,,,,,,,1455.894926000008,1457.0794869999954,1.1845609999872977,,,,,4.0,51:49,1.0,left,1.0,1.1545815999998013,None,,,,,,,,,Annie,1 - without skip,"54:46, 51:49","2.0s, 1.5s",2023-07-19_14h50.37.397,Rewa's Exp,2023.1.2,59.99649620587999,,1.0,None,left,1.1545815999998013
2.0,green,red,left,Countdown_2s.jpg,14.0,0.0,14.0,0.0,0.0,0.0,0.0,2.0,0.0,0.0,0.0,0.0,,,,,0.0,3.0,3.0,3.0,,,,,,,,1461.038300100001,1462.645968500001,1.607668399999966,,,,,5.0,51:49,1.0,left,1.0,1.5791325000027427,None,,,,,,,,,Annie,1 - without skip,"54:46, 51:49","2.0s, 1.5s",2023-07-19_14h50.37.397,Rewa's Exp,2023.1.2,59.99649620587999,,1.0,None,left,1.5791325000027427
2.0,green,red,left,Countdown_2s.jpg,14.0,0.0,14.0,0.0,0.0,0.0,0.0,2.0,0.0,0.0,0.0,0.0,,,,,1.0,0.0,4.0,3.0,,,,,,,,1466.560691599996,1468.1293063000048,1.5686147000087658,,,,,6.0,51:49,1.0,left,1.0,1.5459033000079216,None,,,,,,,,,Annie,1 - without skip,"54:46, 51:49","2.0s, 1.5s",2023-07-19_14h50.37.397,Rewa's Exp,2023.1.2,59.99649620587999,,1.0,None,left,1.5459033000079216
1.5,red,green,right,Countdown_1.5s.jpg,14.0,0.0,14.0,0.0,0.0,0.0,0.0,2.0,0.0,0.0,0.0,0.0,,,,,1.0,1.0,5.0,0.0,,,,,,,,1472.069212900009,1473.2958679000003,1.2266549999912968,,,,,7.0,51:49,1.0,right,1.0,1.2042725999926915,None,,,,,,,,,Annie,1 - without skip,"54:46, 51:49","2.0s, 1.5s",2023-07-19_14h50.37.397,Rewa's Exp,2023.1.2,59.99649620587999,,1.0,None,right,1.2042725999926915
2.0,red,green,right,Countdown_2s.jpg,14.0,0.0,14.0,0.0,0.0,0.0,0.0,2.0,0.0,0.0,0.0,0.0,,,,,1.0,2.0,6.0,1.0,,,,,,,,1477.2403612000053,1478.695970700006,1.455609500000719,,,,,8.0,51:49,1.0,right,1.0,1.432582099994761,None,,,,,,,,,Annie,1 - without skip,"54:46, 51:49","2.0s, 1.5s",2023-07-19_14h50.37.397,Rewa's Exp,2023.1.2,59.99649620587999,,1.0,None,right,1.432582099994761
1.5,green,red,left,Countdown_1.5s.jpg,14.0,0.0,14.0,0.0,0.0,0.0,0.0,2.0,0.0,0.0,0.0,0.0,,,,,1.0,3.0,7.0,2.0,,,,,,,,1482.602361199999,1483.6626339000068,1.060272700007772,,,,,9.0,51:49,1.0,left,1.0,1.0396479000046384,None,,,,,,,,,Annie,1 - without skip,"54:46, 51:49","2.0s, 1.5s",2023-07-19_14h50.37.397,Rewa's Exp,2023.1.2,59.99649620587999,,1.0,None,left,1.0396479000046384
