Countdown,color1,color2,correct,screenshot,trials.thisRepN,trials.thisTrialN,trials.thisN,trials.thisIndex,trials_6040.thisRepN,trials_6040.thisTrialN,trials_6040.thisN,trials_6040.thisIndex,trials_5743.thisRepN,trials_5743.thisTrialN,trials_5743.thisN,trials_5743.thisIndex,trials_5446.thisRepN,trials_5446.thisTrialN,trials_5446.thisN,trials_5446.thisIndex,trials_5149.thisRepN,trials_5149.thisTrialN,trials_5149.thisN,trials_5149.thisIndex,key_resp_4.started,key_resp_4.keys,key_resp_4.rt,key_resp_2.keys,key_resp_3.started,key_resp_3.keys,key_resp_3.rt,Videoshowstart,Videoshowstop,VideoshowRT,response_3.keys,response_3.corr,response_3.rt,key_skip_3.keys,total_score,Dot_ratio,current_score,key_skip_3.rt,response_4.keys,response_4.corr,response_4.rt,key_skip_4.keys,key_skip_4.rt,text_2.started,text_5.started,key_resp.started,text_9.started,key_resp.keys,key_resp.rt,text_10.started,text_10.stopped,participant,Task,Dot Ratio,Deadline,date,expName,psychopyVersion,frameRate,
,,,,,,,,,,,,,,,,,,,,,,,,,340.7861191999982,space,3.0863737000036053,,,,,,,,,,,,,,,,,,,,,,,,,,,,,Annie,2 - with skip,"54:46, 51:49","2.0s, 1.5s",2023-07-19_15h21.13.121,Rewa's Exp,2023.1.2,60.01453551765056,
,,,,,,,,,,,,,,,,,,,,,,,,,,,,None,,,,,,,,,,,,,,,,,,,,,,,,,,,,Annie,2 - with skip,"54:46, 51:49","2.0s, 1.5s",2023-07-19_15h21.13.121,Rewa's Exp,2023.1.2,60.01453551765056,
,,,,,,,,,,,,,,,,,,,,,,,,,,,,,343.90300930000376,space,8.049180899994099,,,,,,,,,,,,,,,,,,,,,,,,,Annie,2 - with skip,"54:46, 51:49","2.0s, 1.5s",2023-07-19_15h21.13.121,Rewa's Exp,2023.1.2,60.01453551765056,
Countdown_2s.mp4,green,red,left,Countdown_2s.jpg,0,0,0,0,0,0,0,2,0,0,0,2,0,0,0,3,,,,,,,,,,,,349.13928050000686,350.4802114000049,1.3409308999980567,left,1,1.3111089000012726,None,1,54:46,1,,,,,,,,,,,,,,,Annie,2 - with skip,"54:46, 51:49","2.0s, 1.5s",2023-07-19_15h21.13.121,Rewa's Exp,2023.1.2,60.01453551765056,
Countdown_1.5s.mp4,green,red,left,Countdown_1.5s.jpg,0,0,0,0,0,0,0,2,0,0,0,2,0,1,1,2,,,,,,,,,,,,354.46321480000915,355.63008130001253,1.1668665000033798,left,1,1.1492252999887569,None,2,54:46,1,,,,,,,,,,,,,,,Annie,2 - with skip,"54:46, 51:49","2.0s, 1.5s",2023-07-19_15h21.13.121,Rewa's Exp,2023.1.2,60.01453551765056,
Countdown_1.5s.mp4,red,green,right,Countdown_1.5s.jpg,0,0,0,0,0,0,0,2,0,0,0,2,0,2,2,0,,,,,,,,,,,,359.5448224000138,360.81352080000215,1.2686983999883523,right,1,1.250554700003704,None,3,54:46,1,,,,,,,,,,,,,,,Annie,2 - with skip,"54:46, 51:49","2.0s, 1.5s",2023-07-19_15h21.13.121,Rewa's Exp,2023.1.2,60.01453551765056,
Countdown_2s.mp4,red,green,right,Countdown_2s.jpg,0,0,0,0,0,0,0,2,0,0,0,2,0,3,3,1,,,,,,,,,,,,364.7509310000023,366.1802231000038,1.4292921000014758,None,0,,space,3,54:46,0,1.4122025999968173,,,,,,,,,,,,,,Annie,2 - with skip,"54:46, 51:49","2.0s, 1.5s",2023-07-19_15h21.13.121,Rewa's Exp,2023.1.2,60.01453551765056,
Countdown_2s.mp4,red,green,right,Countdown_2s.jpg,0,0,0,0,0,0,0,2,0,0,0,2,1,0,4,1,,,,,,,,,,,,370.13684400000784,371.94664960000955,1.8098056000017095,right,1,1.7780067999992752,None,4,54:46,1,,,,,,,,,,,,,,,Annie,2 - with skip,"54:46, 51:49","2.0s, 1.5s",2023-07-19_15h21.13.121,Rewa's Exp,2023.1.2,60.01453551765056,
Countdown_1.5s.mp4,red,green,right,Countdown_1.5s.jpg,0,0,0,0,0,0,0,2,0,0,0,2,1,1,5,0,,,,,,,,,,,,375.9160902000003,377.21332170000824,1.2972315000079107,left,0,1.2702250000002095,None,2,54:46,-2,,,,,,,,,,,,,,,Annie,2 - with skip,"54:46, 51:49","2.0s, 1.5s",2023-07-19_15h21.13.121,Rewa's Exp,2023.1.2,60.01453551765056,
Countdown_1.5s.mp4,green,red,left,Countdown_1.5s.jpg,0,0,0,0,0,0,0,2,0,0,0,2,1,2,6,2,,,,,,,,,,,,381.1318154000037,382.2300559000141,1.0982405000104336,None,0,,space,2,54:46,0,1.0796571000100812,,,,,,,,,,,,,,Annie,2 - with skip,"54:46, 51:49","2.0s, 1.5s",2023-07-19_15h21.13.121,Rewa's Exp,2023.1.2,60.01453551765056,
Countdown_2s.mp4,green,red,left,Countdown_2s.jpg,0,0,0,0,0,0,0,2,0,0,0,2,1,3,7,3,,,,,,,,,,,,386.14448050000647,387.4466376000055,1.3021570999990217,right,0,1.2825068999954965,None,0,54:46,-2,,,,,,,,,,,,,,,Annie,2 - with skip,"54:46, 51:49","2.0s, 1.5s",2023-07-19_15h21.13.121,Rewa's Exp,2023.1.2,60.01453551765056,
Countdown_2s.mp4,green,red,left,Countdown_2s.jpg,0,0,0,0,0,0,0,2,0,0,0,2,,,,,0,0,0,3,,,,,,,,391.1763728000078,393.01325990000623,1.836887099998421,,,,,-2,51:49,-2,,right,0,1.8195744999975432,None,,,,,,,,,,Annie,2 - with skip,"54:46, 51:49","2.0s, 1.5s",2023-07-19_15h21.13.121,Rewa's Exp,2023.1.2,60.01453551765056,
Countdown_1.5s.mp4,red,green,right,Countdown_1.5s.jpg,0,0,0,0,0,0,0,2,0,0,0,2,,,,,0,1,1,0,,,,,,,,396.9411936000106,398.06345390000206,1.122260299991467,,,,,-1,51:49,1,,right,1,1.0935050999978557,None,,,,,,,,,,Annie,2 - with skip,"54:46, 51:49","2.0s, 1.5s",2023-07-19_15h21.13.121,Rewa's Exp,2023.1.2,60.01453551765056,
Countdown_1.5s.mp4,green,red,left,Countdown_1.5s.jpg,0,0,0,0,0,0,0,2,0,0,0,2,,,,,0,2,2,2,,,,,,,,401.9874048000056,403.09662030001346,1.1092155000078492,,,,,-1,51:49,0,,None,0,,space,1.0789921999967191,,,,,,,,,Annie,2 - with skip,"54:46, 51:49","2.0s, 1.5s",2023-07-19_15h21.13.121,Rewa's Exp,2023.1.2,60.01453551765056,
Countdown_2s.mp4,red,green,right,Countdown_2s.jpg,0,0,0,0,0,0,0,2,0,0,0,2,,,,,0,3,3,1,,,,,,,,407.0315643000067,408.62998170001083,1.5984174000041094,,,,,0,51:49,1,,right,1,1.57949550000194,None,,,,,,,,,,Annie,2 - with skip,"54:46, 51:49","2.0s, 1.5s",2023-07-19_15h21.13.121,Rewa's Exp,2023.1.2,60.01453551765056,
Countdown_1.5s.mp4,red,green,right,Countdown_1.5s.jpg,0,0,0,0,0,0,0,2,0,0,0,2,,,,,1,0,4,0,,,,,,,,412.562147500008,413.8802343000134,1.3180868000054033,,,,,-2,51:49,-2,,left,0,1.2881895000027725,None,,,,,,,,,,Annie,2 - with skip,"54:46, 51:49","2.0s, 1.5s",2023-07-19_15h21.13.121,Rewa's Exp,2023.1.2,60.01453551765056,
Countdown_2s.mp4,red,green,right,Countdown_2s.jpg,0,0,0,0,0,0,0,2,0,0,0,2,,,,,1,1,5,1,,,,,,,,417.8750801000133,419.2634410000028,1.3883608999894932,,,,,-2,51:49,0,,None,0,,space,1.3596182000037516,,,,,,,,,Annie,2 - with skip,"54:46, 51:49","2.0s, 1.5s",2023-07-19_15h21.13.121,Rewa's Exp,2023.1.2,60.01453551765056,
Countdown_2s.mp4,green,red,left,Countdown_2s.jpg,0,0,0,0,0,0,0,2,0,0,0,2,,,,,1,2,6,3,,,,,,,,423.20947670000896,424.61349590000464,1.4040191999956733,,,,,-1,51:49,1,,left,1,1.3766414999990957,None,,,,,,,,,,Annie,2 - with skip,"54:46, 51:49","2.0s, 1.5s",2023-07-19_15h21.13.121,Rewa's Exp,2023.1.2,60.01453551765056,
Countdown_1.5s.mp4,green,red,left,Countdown_1.5s.jpg,0,0,0,0,0,0,0,2,0,0,0,2,,,,,1,3,7,2,,,,,,,,428.54774850000103,429.6972359000065,1.1494874000054551,,,,,-3,51:49,-2,,right,0,1.1189942999917548,None,,,,,,,,,,Annie,2 - with skip,"54:46, 51:49","2.0s, 1.5s",2023-07-19_15h21.13.121,Rewa's Exp,2023.1.2,60.01453551765056,
Countdown_1.5s.mp4,green,red,left,Countdown_1.5s.jpg,0,0,0,0,0,0,0,2,0,0,0,2,,,,,,,,,,,,,,,,,,,,,,,,,,,,,,,,436.32153699999617,436.32153699999617,436.32153699999617,436.32153699999617,space,1.1663548999931663,,,Annie,2 - with skip,"54:46, 51:49","2.0s, 1.5s",2023-07-19_15h21.13.121,Rewa's Exp,2023.1.2,60.01453551765056,
Countdown_2s.mp4,red,green,right,Countdown_2s.jpg,1,0,1,0,0,0,0,0,0,0,0,1,0,0,0,1,,,,,,,,,,,,434.8662665000011,436.34666450000077,1.4803979999996955,left,0,1.4566290999937337,None,-5,54:46,-2,,,,,,,,,,,,,,,Annie,2 - with skip,"54:46, 51:49","2.0s, 1.5s",2023-07-19_15h21.13.121,Rewa's Exp,2023.1.2,60.01453551765056,
Countdown_2s.mp4,green,red,left,Countdown_2s.jpg,1,0,1,0,0,0,0,0,0,0,0,1,0,1,1,3,,,,,,,,,,,,440.2670291000104,441.99659000000975,1.729560899999342,left,1,1.7041586999985157,None,-4,54:46,1,,,,,,,,,,,,,,,Annie,2 - with skip,"54:46, 51:49","2.0s, 1.5s",2023-07-19_15h21.13.121,Rewa's Exp,2023.1.2,60.01453551765056,
Countdown_1.5s.mp4,red,green,right,Countdown_1.5s.jpg,1,0,1,0,0,0,0,0,0,0,0,1,0,2,2,0,,,,,,,,,,,,445.95238080000854,447.3131726000138,1.360791800005245,left,0,1.3306001000019023,None,-6,54:46,-2,,,,,,,,,,,,,,,Annie,2 - with skip,"54:46, 51:49","2.0s, 1.5s",2023-07-19_15h21.13.121,Rewa's Exp,2023.1.2,60.01453551765056,
Countdown_1.5s.mp4,green,red,left,Countdown_1.5s.jpg,1,0,1,0,0,0,0,0,0,0,0,1,0,3,3,2,,,,,,,,,,,,451.2311265000026,452.5467333000124,1.3156068000098458,left,1,1.2830929000047036,None,-5,54:46,1,,,,,,,,,,,,,,,Annie,2 - with skip,"54:46, 51:49","2.0s, 1.5s",2023-07-19_15h21.13.121,Rewa's Exp,2023.1.2,60.01453551765056,
Countdown_2s.mp4,red,green,right,Countdown_2s.jpg,1,0,1,0,0,0,0,0,0,0,0,1,1,0,4,1,,,,,,,,,,,,456.52157550000993,458.04642960001365,1.5248541000037221,right,1,1.5047154999920167,None,-4,54:46,1,,,,,,,,,,,,,,,Annie,2 - with skip,"54:46, 51:49","2.0s, 1.5s",2023-07-19_15h21.13.121,Rewa's Exp,2023.1.2,60.01453551765056,
Countdown_1.5s.mp4,red,green,right,Countdown_1.5s.jpg,1,0,1,0,0,0,0,0,0,0,0,1,1,1,5,0,,,,,,,,,,,,461.9515790000005,463.06395310000516,1.112374100004672,None,0,,space,-4,54:46,0,1.0832293999992544,,,,,,,,,,,,,,Annie,2 - with skip,"54:46, 51:49","2.0s, 1.5s",2023-07-19_15h21.13.121,Rewa's Exp,2023.1.2,60.01453551765056,
Countdown_2s.mp4,green,red,left,Countdown_2s.jpg,1,0,1,0,0,0,0,0,0,0,0,1,1,2,6,3,,,,,,,,,,,,467.0039470000047,468.6631880000059,1.6592410000012023,left,1,1.6397701999958372,None,-3,54:46,1,,,,,,,,,,,,,,,Annie,2 - with skip,"54:46, 51:49","2.0s, 1.5s",2023-07-19_15h21.13.121,Rewa's Exp,2023.1.2,60.01453551765056,
Countdown_1.5s.mp4,green,red,left,Countdown_1.5s.jpg,1,0,1,0,0,0,0,0,0,0,0,1,1,3,7,2,,,,,,,,,,,,472.5583506000112,473.66331940000237,1.104968799991184,left,1,1.075497700003325,None,-2,54:46,1,,,,,,,,,,,,,,,Annie,2 - with skip,"54:46, 51:49","2.0s, 1.5s",2023-07-19_15h21.13.121,Rewa's Exp,2023.1.2,60.01453551765056,
Countdown_2s.mp4,green,red,left,Countdown_2s.jpg,1,0,1,0,0,0,0,0,0,0,0,1,,,,,0,0,0,3,,,,,,,,477.59121750001214,479.3299699000054,1.7387523999932455,,,,,-1,51:49,1,,left,1,1.7071795999945607,None,,,,,,,,,,Annie,2 - with skip,"54:46, 51:49","2.0s, 1.5s",2023-07-19_15h21.13.121,Rewa's Exp,2023.1.2,60.01453551765056,
Countdown_1.5s.mp4,green,red,left,Countdown_1.5s.jpg,1,0,1,0,0,0,0,0,0,0,0,1,,,,,0,1,1,2,,,,,,,,483.2392104000028,484.430303000001,1.1910925999982283,,,,,-1,51:49,0,,None,0,,space,1.1710214000049746,,,,,,,,,Annie,2 - with skip,"54:46, 51:49","2.0s, 1.5s",2023-07-19_15h21.13.121,Rewa's Exp,2023.1.2,60.01453551765056,
Countdown_1.5s.mp4,red,green,right,Countdown_1.5s.jpg,1,0,1,0,0,0,0,0,0,0,0,1,,,,,0,2,2,0,,,,,,,,488.401371800006,489.6964438000141,1.2950720000080764,,,,,-3,51:49,-2,,left,0,1.273697099997662,None,,,,,,,,,,Annie,2 - with skip,"54:46, 51:49","2.0s, 1.5s",2023-07-19_15h21.13.121,Rewa's Exp,2023.1.2,60.01453551765056,
Countdown_2s.mp4,red,green,right,Countdown_2s.jpg,1,0,1,0,0,0,0,0,0,0,0,1,,,,,0,3,3,1,,,,,,,,493.60872090001067,495.3467493000062,1.7380283999955282,,,,,-2,51:49,1,,right,1,1.705200500000501,None,,,,,,,,,,Annie,2 - with skip,"54:46, 51:49","2.0s, 1.5s",2023-07-19_15h21.13.121,Rewa's Exp,2023.1.2,60.01453551765056,
Countdown_2s.mp4,green,red,left,Countdown_2s.jpg,1,0,1,0,0,0,0,0,0,0,0,1,,,,,1,0,4,3,,,,,,,,499.24681290000444,500.99704090000887,1.7502280000044266,,,,,-4,51:49,-2,,right,0,1.7325391999911517,None,,,,,,,,,,Annie,2 - with skip,"54:46, 51:49","2.0s, 1.5s",2023-07-19_15h21.13.121,Rewa's Exp,2023.1.2,60.01453551765056,
Countdown_1.5s.mp4,green,red,left,Countdown_1.5s.jpg,1,0,1,0,0,0,0,0,0,0,0,1,,,,,1,1,5,2,,,,,,,,504.93372820000513,506.42982660001144,1.4960984000063036,,,,,-6,51:49,-2,,None,0,,None,,,,,,,,,,Annie,2 - with skip,"54:46, 51:49","2.0s, 1.5s",2023-07-19_15h21.13.121,Rewa's Exp,2023.1.2,60.01453551765056,
Countdown_2s.mp4,red,green,right,Countdown_2s.jpg,1,0,1,0,0,0,0,0,0,0,0,1,,,,,1,2,6,1,,,,,,,,510.3701211000007,512.0465601000033,1.6764390000025742,,,,,-6,51:49,0,,None,0,,space,1.6567202000005636,,,,,,,,,Annie,2 - with skip,"54:46, 51:49","2.0s, 1.5s",2023-07-19_15h21.13.121,Rewa's Exp,2023.1.2,60.01453551765056,
Countdown_1.5s.mp4,red,green,right,Countdown_1.5s.jpg,1,0,1,0,0,0,0,0,0,0,0,1,,,,,1,3,7,0,,,,,,,,516.0219591000059,517.2298257000075,1.20786660000158,,,,,-6,51:49,0,,None,0,,space,1.18059409999114,,,,,,,,,Annie,2 - with skip,"54:46, 51:49","2.0s, 1.5s",2023-07-19_15h21.13.121,Rewa's Exp,2023.1.2,60.01453551765056,
Countdown_2s.mp4,red,green,right,Countdown_2s.jpg,1,0,1,0,0,0,0,0,0,0,0,1,,,,,,,,,,,,,,,,,,,,,,,,,,,,,,,,523.8416329000029,523.8416329000029,523.8416329000029,523.8416329000029,space,1.1014483999897493,,,Annie,2 - with skip,"54:46, 51:49","2.0s, 1.5s",2023-07-19_15h21.13.121,Rewa's Exp,2023.1.2,60.01453551765056,
Countdown_2s.mp4,green,red,left,Countdown_2s.jpg,2,0,2,0,0,0,0,3,0,0,0,1,0,0,0,3,,,,,,,,,,,,522.2765297000005,523.4964249000041,1.2198952000035206,left,1,1.1900028999953065,None,-5,54:46,1,,,,,,,,,,,,,,,Annie,2 - with skip,"54:46, 51:49","2.0s, 1.5s",2023-07-19_15h21.13.121,Rewa's Exp,2023.1.2,60.01453551765056,
Countdown_2s.mp4,red,green,right,Countdown_2s.jpg,2,0,2,0,0,0,0,3,0,0,0,1,0,1,1,1,,,,,,,,,,,,527.3928472000116,528.9967921000061,1.6039448999945307,left,0,1.5780254999845056,None,-7,54:46,-2,,,,,,,,,,,,,,,Annie,2 - with skip,"54:46, 51:49","2.0s, 1.5s",2023-07-19_15h21.13.121,Rewa's Exp,2023.1.2,60.01453551765056,
Countdown_1.5s.mp4,green,red,left,Countdown_1.5s.jpg,2,0,2,0,0,0,0,3,0,0,0,1,0,2,2,2,,,,,,,,,,,,532.9131013000006,534.2630867000116,1.3499854000110645,left,1,1.3206807999958983,None,-6,54:46,1,,,,,,,,,,,,,,,Annie,2 - with skip,"54:46, 51:49","2.0s, 1.5s",2023-07-19_15h21.13.121,Rewa's Exp,2023.1.2,60.01453551765056,
Countdown_1.5s.mp4,red,green,right,Countdown_1.5s.jpg,2,0,2,0,0,0,0,3,0,0,0,1,0,3,3,0,,,,,,,,,,,,538.2147259000049,539.5798163000145,1.3650904000096489,right,1,1.3330014999955893,None,-5,54:46,1,,,,,,,,,,,,,,,Annie,2 - with skip,"54:46, 51:49","2.0s, 1.5s",2023-07-19_15h21.13.121,Rewa's Exp,2023.1.2,60.01453551765056,
Countdown_2s.mp4,green,red,left,Countdown_2s.jpg,2,0,2,0,0,0,0,3,0,0,0,1,1,0,4,3,,,,,,,,,,,,543.5024245000095,544.9466803000105,1.444255800000974,left,1,1.411562999986927,None,-4,54:46,1,,,,,,,,,,,,,,,Annie,2 - with skip,"54:46, 51:49","2.0s, 1.5s",2023-07-19_15h21.13.121,Rewa's Exp,2023.1.2,60.01453551765056,
Countdown_1.5s.mp4,green,red,left,Countdown_1.5s.jpg,2,0,2,0,0,0,0,3,0,0,0,1,1,1,5,2,,,,,,,,,,,,548.8621986000071,550.3632769000105,1.501078300003428,None,0,,space,-4,54:46,0,1.4686978999961866,,,,,,,,,,,,,,Annie,2 - with skip,"54:46, 51:49","2.0s, 1.5s",2023-07-19_15h21.13.121,Rewa's Exp,2023.1.2,60.01453551765056,
Countdown_2s.mp4,red,green,right,Countdown_2s.jpg,2,0,2,0,0,0,0,3,0,0,0,1,1,2,6,1,,,,,,,,,,,,554.2768803000072,555.8797709000064,1.6028905999992276,right,1,1.573518300006981,None,-3,54:46,1,,,,,,,,,,,,,,,Annie,2 - with skip,"54:46, 51:49","2.0s, 1.5s",2023-07-19_15h21.13.121,Rewa's Exp,2023.1.2,60.01453551765056,
Countdown_1.5s.mp4,red,green,right,Countdown_1.5s.jpg,2,0,2,0,0,0,0,3,0,0,0,1,1,3,7,0,,,,,,,,,,,,559.7918161000125,560.8464870000025,1.0546708999900147,left,0,1.0267265000002226,None,-5,54:46,-2,,,,,,,,,,,,,,,Annie,2 - with skip,"54:46, 51:49","2.0s, 1.5s",2023-07-19_15h21.13.121,Rewa's Exp,2023.1.2,60.01453551765056,
Countdown_2s.mp4,red,green,right,Countdown_2s.jpg,2,0,2,0,0,0,0,3,0,0,0,1,,,,,0,0,0,1,,,,,,,,564.768704800008,566.1465075000015,1.377802699993481,,,,,-5,51:49,0,,None,0,,space,1.3447425000049407,,,,,,,,,Annie,2 - with skip,"54:46, 51:49","2.0s, 1.5s",2023-07-19_15h21.13.121,Rewa's Exp,2023.1.2,60.01453551765056,
Countdown_2s.mp4,green,red,left,Countdown_2s.jpg,2,0,2,0,0,0,0,3,0,0,0,1,,,,,0,1,1,3,,,,,,,,570.0701090000075,571.3797773000115,1.3096683000039775,,,,,-5,51:49,0,,None,0,,space,1.2857672999962233,,,,,,,,,Annie,2 - with skip,"54:46, 51:49","2.0s, 1.5s",2023-07-19_15h21.13.121,Rewa's Exp,2023.1.2,60.01453551765056,
Countdown_1.5s.mp4,red,green,right,Countdown_1.5s.jpg,2,0,2,0,0,0,0,3,0,0,0,1,,,,,0,2,2,0,,,,,,,,575.3108034000034,576.563407300011,1.2526039000076707,,,,,-4,51:49,1,,right,1,1.2273462000011932,None,,,,,,,,,,Annie,2 - with skip,"54:46, 51:49","2.0s, 1.5s",2023-07-19_15h21.13.121,Rewa's Exp,2023.1.2,60.01453551765056,
Countdown_1.5s.mp4,green,red,left,Countdown_1.5s.jpg,2,0,2,0,0,0,0,3,0,0,0,1,,,,,0,3,3,2,,,,,,,,580.4778349000117,581.5638147000136,1.085979800001951,,,,,-3,51:49,1,,left,1,1.0691755999869201,None,,,,,,,,,,Annie,2 - with skip,"54:46, 51:49","2.0s, 1.5s",2023-07-19_15h21.13.121,Rewa's Exp,2023.1.2,60.01453551765056,
Countdown_1.5s.mp4,red,green,right,Countdown_1.5s.jpg,2,0,2,0,0,0,0,3,0,0,0,1,,,,,1,0,4,0,,,,,,,,585.5076775000052,586.7630844000087,1.255406900003436,,,,,-2,51:49,1,,right,1,1.2233747999853222,None,,,,,,,,,,Annie,2 - with skip,"54:46, 51:49","2.0s, 1.5s",2023-07-19_15h21.13.121,Rewa's Exp,2023.1.2,60.01453551765056,
Countdown_2s.mp4,green,red,left,Countdown_2s.jpg,2,0,2,0,0,0,0,3,0,0,0,1,,,,,1,1,5,3,,,,,,,,590.6701807000063,592.130066800004,1.459886099997675,,,,,-1,51:49,1,,left,1,1.4276591000088956,None,,,,,,,,,,Annie,2 - with skip,"54:46, 51:49","2.0s, 1.5s",2023-07-19_15h21.13.121,Rewa's Exp,2023.1.2,60.01453551765056,
Countdown_2s.mp4,red,green,right,Countdown_2s.jpg,2,0,2,0,0,0,0,3,0,0,0,1,,,,,1,2,6,1,,,,,,,,596.0253185000038,597.297570300012,1.2722518000082346,,,,,-1,51:49,0,,None,0,,space,1.240070799991372,,,,,,,,,Annie,2 - with skip,"54:46, 51:49","2.0s, 1.5s",2023-07-19_15h21.13.121,Rewa's Exp,2023.1.2,60.01453551765056,
Countdown_1.5s.mp4,green,red,left,Countdown_1.5s.jpg,2,0,2,0,0,0,0,3,0,0,0,1,,,,,1,3,7,2,,,,,,,,601.268827900014,602.7632671000028,1.4944391999888467,,,,,-3,51:49,-2,,None,0,,None,,,,,,,,,,Annie,2 - with skip,"54:46, 51:49","2.0s, 1.5s",2023-07-19_15h21.13.121,Rewa's Exp,2023.1.2,60.01453551765056,
Countdown_2s.mp4,red,green,right,Countdown_2s.jpg,2,0,2,0,0,0,0,3,0,0,0,1,,,,,,,,,,,,,,,,,,,,,,,,,,,,,,,,609.353844600002,609.353844600002,609.353844600002,609.353844600002,space,3.213875500005088,,,Annie,2 - with skip,"54:46, 51:49","2.0s, 1.5s",2023-07-19_15h21.13.121,Rewa's Exp,2023.1.2,60.01453551765056,
Countdown_2s.mp4,green,red,left,Countdown_2s.jpg,3,0,3,0,0,0,0,0,0,0,0,3,0,0,0,3,,,,,,,,,,,,609.8905917000084,611.3636638000025,1.4730720999941695,None,0,,space,-3,54:46,0,1.4473551999981282,,,,,,,,,,,,,,Annie,2 - with skip,"54:46, 51:49","2.0s, 1.5s",2023-07-19_15h21.13.121,Rewa's Exp,2023.1.2,60.01453551765056,
Countdown_1.5s.mp4,green,red,left,Countdown_1.5s.jpg,3,0,3,0,0,0,0,0,0,0,0,3,0,1,1,2,,,,,,,,,,,,615.3364303000126,616.4297718000016,1.0933414999890374,None,0,,space,-3,54:46,0,1.0743000999937067,,,,,,,,,,,,,,Annie,2 - with skip,"54:46, 51:49","2.0s, 1.5s",2023-07-19_15h21.13.121,Rewa's Exp,2023.1.2,60.01453551765056,
Countdown_1.5s.mp4,red,green,right,Countdown_1.5s.jpg,3,0,3,0,0,0,0,0,0,0,0,3,0,2,2,0,,,,,,,,,,,,620.3836022000032,621.4797235000005,1.0961212999973213,None,0,,space,-3,54:46,0,1.0742381000018213,,,,,,,,,,,,,,Annie,2 - with skip,"54:46, 51:49","2.0s, 1.5s",2023-07-19_15h21.13.121,Rewa's Exp,2023.1.2,60.01453551765056,
Countdown_2s.mp4,red,green,right,Countdown_2s.jpg,3,0,3,0,0,0,0,0,0,0,0,3,0,3,3,1,,,,,,,,,,,,625.3819236000127,626.9128728000069,1.530949199994211,None,0,,space,-3,54:46,0,1.5000491999962833,,,,,,,,,,,,,,Annie,2 - with skip,"54:46, 51:49","2.0s, 1.5s",2023-07-19_15h21.13.121,Rewa's Exp,2023.1.2,60.01453551765056,
Countdown_1.5s.mp4,red,green,right,Countdown_1.5s.jpg,3,0,3,0,0,0,0,0,0,0,0,3,1,0,4,0,,,,,,,,,,,,630.8656807000079,631.7630590000044,0.8973782999964897,right,1,0.8807955999945989,None,-2,54:46,1,,,,,,,,,,,,,,,Annie,2 - with skip,"54:46, 51:49","2.0s, 1.5s",2023-07-19_15h21.13.121,Rewa's Exp,2023.1.2,60.01453551765056,
Countdown_2s.mp4,red,green,right,Countdown_2s.jpg,3,0,3,0,0,0,0,0,0,0,0,3,1,1,5,1,,,,,,,,,,,,635.6602788000018,636.8630551000097,1.2027763000078266,None,0,,space,-2,54:46,0,1.1828582000016468,,,,,,,,,,,,,,Annie,2 - with skip,"54:46, 51:49","2.0s, 1.5s",2023-07-19_15h21.13.121,Rewa's Exp,2023.1.2,60.01453551765056,
Countdown_2s.mp4,green,red,left,Countdown_2s.jpg,3,0,3,0,0,0,0,0,0,0,0,3,1,2,6,3,,,,,,,,,,,,640.78264640001,642.3299069000059,1.5472604999959003,None,0,,space,-2,54:46,0,1.5231774999992922,,,,,,,,,,,,,,Annie,2 - with skip,"54:46, 51:49","2.0s, 1.5s",2023-07-19_15h21.13.121,Rewa's Exp,2023.1.2,60.01453551765056,
Countdown_1.5s.mp4,green,red,left,Countdown_1.5s.jpg,3,0,3,0,0,0,0,0,0,0,0,3,1,3,7,2,,,,,,,,,,,,646.2833402000106,647.2630520000093,0.9797117999987677,left,1,0.9511518999934196,None,-1,54:46,1,,,,,,,,,,,,,,,Annie,2 - with skip,"54:46, 51:49","2.0s, 1.5s",2023-07-19_15h21.13.121,Rewa's Exp,2023.1.2,60.01453551765056,
Countdown_2s.mp4,red,green,right,Countdown_2s.jpg,3,0,3,0,0,0,0,0,0,0,0,3,,,,,0,0,0,1,,,,,,,,651.1582833000139,652.3637820000004,1.2054986999864923,,,,,-1,51:49,0,,None,0,,space,1.180856799997855,,,,,,,,,Annie,2 - with skip,"54:46, 51:49","2.0s, 1.5s",2023-07-19_15h21.13.121,Rewa's Exp,2023.1.2,60.01453551765056,
Countdown_2s.mp4,green,red,left,Countdown_2s.jpg,3,0,3,0,0,0,0,0,0,0,0,3,,,,,0,1,1,3,,,,,,,,656.2945814000122,657.746369600005,1.451788199992734,,,,,0,51:49,1,,left,1,1.4196307999955025,None,,,,,,,,,,Annie,2 - with skip,"54:46, 51:49","2.0s, 1.5s",2023-07-19_15h21.13.121,Rewa's Exp,2023.1.2,60.01453551765056,
Countdown_1.5s.mp4,green,red,left,Countdown_1.5s.jpg,3,0,3,0,0,0,0,0,0,0,0,3,,,,,0,2,2,2,,,,,,,,661.6883813000022,662.6131440000026,0.9247627000004286,,,,,0,51:49,0,,None,0,,space,0.8987272999947891,,,,,,,,,Annie,2 - with skip,"54:46, 51:49","2.0s, 1.5s",2023-07-19_15h21.13.121,Rewa's Exp,2023.1.2,60.01453551765056,
Countdown_1.5s.mp4,red,green,right,Countdown_1.5s.jpg,3,0,3,0,0,0,0,0,0,0,0,3,,,,,0,3,3,0,,,,,,,,666.5462244000082,667.5799298000056,1.033705399997416,,,,,1,51:49,1,,right,1,1.0159494999970775,None,,,,,,,,,,Annie,2 - with skip,"54:46, 51:49","2.0s, 1.5s",2023-07-19_15h21.13.121,Rewa's Exp,2023.1.2,60.01453551765056,
Countdown_1.5s.mp4,green,red,left,Countdown_1.5s.jpg,3,0,3,0,0,0,0,0,0,0,0,3,,,,,1,0,4,2,,,,,,,,671.5595045000082,672.3632306000072,0.8037260999990394,,,,,1,51:49,0,,None,0,,space,0.7858307999849785,,,,,,,,,Annie,2 - with skip,"54:46, 51:49","2.0s, 1.5s",2023-07-19_15h21.13.121,Rewa's Exp,2023.1.2,60.01453551765056,
Countdown_2s.mp4,red,green,right,Countdown_2s.jpg,3,0,3,0,0,0,0,0,0,0,0,3,,,,,1,1,5,1,,,,,,,,676.2715838000004,677.4964856000006,1.2249018000002252,,,,,2,51:49,1,,right,1,1.1942443999869283,None,,,,,,,,,,Annie,2 - with skip,"54:46, 51:49","2.0s, 1.5s",2023-07-19_15h21.13.121,Rewa's Exp,2023.1.2,60.01453551765056,
Countdown_1.5s.mp4,red,green,right,Countdown_1.5s.jpg,3,0,3,0,0,0,0,0,0,0,0,3,,,,,1,2,6,0,,,,,,,,681.3975886000117,682.2639050000143,0.8663164000026882,,,,,2,51:49,0,,None,0,,space,0.8355486999935238,,,,,,,,,Annie,2 - with skip,"54:46, 51:49","2.0s, 1.5s",2023-07-19_15h21.13.121,Rewa's Exp,2023.1.2,60.01453551765056,
Countdown_2s.mp4,green,red,left,Countdown_2s.jpg,3,0,3,0,0,0,0,0,0,0,0,3,,,,,1,3,7,3,,,,,,,,686.1578979000042,687.2635505000071,1.1056526000029407,,,,,0,51:49,-2,,right,0,1.075865699996939,None,,,,,,,,,,Annie,2 - with skip,"54:46, 51:49","2.0s, 1.5s",2023-07-19_15h21.13.121,Rewa's Exp,2023.1.2,60.01453551765056,
Countdown_2s.mp4,green,red,left,Countdown_2s.jpg,3,0,3,0,0,0,0,0,0,0,0,3,,,,,,,,,,,,,,,,,,,,,,,,,,,,,,,,693.8572180000047,693.8572180000047,693.8572180000047,693.8572180000047,space,3.013681499985978,,,Annie,2 - with skip,"54:46, 51:49","2.0s, 1.5s",2023-07-19_15h21.13.121,Rewa's Exp,2023.1.2,60.01453551765056,
Countdown_2s.mp4,green,red,left,Countdown_2s.jpg,4,0,4,0,0,0,0,2,0,0,0,1,0,0,0,3,,,,,,,,,,,,694.2383961000014,695.4966109000088,1.2582148000074085,None,0,,space,0,54:46,0,1.2364154999959283,,,,,,,,,,,,,,Annie,2 - with skip,"54:46, 51:49","2.0s, 1.5s",2023-07-19_15h21.13.121,Rewa's Exp,2023.1.2,60.01453551765056,
Countdown_1.5s.mp4,green,red,left,Countdown_1.5s.jpg,4,0,4,0,0,0,0,2,0,0,0,1,0,1,1,2,,,,,,,,,,,,699.3759627000109,700.2795719000133,0.9036092000023928,None,0,,space,0,54:46,0,0.8819466999848373,,,,,,,,,,,,,,Annie,2 - with skip,"54:46, 51:49","2.0s, 1.5s",2023-07-19_15h21.13.121,Rewa's Exp,2023.1.2,60.01453551765056,
Countdown_1.5s.mp4,red,green,right,Countdown_1.5s.jpg,4,0,4,0,0,0,0,2,0,0,0,1,0,2,2,0,,,,,,,,,,,,704.2265191000042,705.3630083000025,1.1364891999983229,right,1,1.1118091999960598,None,1,54:46,1,,,,,,,,,,,,,,,Annie,2 - with skip,"54:46, 51:49","2.0s, 1.5s",2023-07-19_15h21.13.121,Rewa's Exp,2023.1.2,60.01453551765056,
Countdown_2s.mp4,red,green,right,Countdown_2s.jpg,4,0,4,0,0,0,0,2,0,0,0,1,0,3,3,1,,,,,,,,,,,,709.2655365000101,710.1632431000035,0.8977065999933984,None,0,,space,1,54:46,0,0.8721126000018558,,,,,,,,,,,,,,Annie,2 - with skip,"54:46, 51:49","2.0s, 1.5s",2023-07-19_15h21.13.121,Rewa's Exp,2023.1.2,60.01453551765056,
Countdown_1.5s.mp4,red,green,right,Countdown_1.5s.jpg,4,0,4,0,0,0,0,2,0,0,0,1,1,0,4,0,,,,,,,,,,,,714.0670915000082,715.1129998000106,1.0459083000023384,right,1,1.014520500000799,None,2,54:46,1,,,,,,,,,,,,,,,Annie,2 - with skip,"54:46, 51:49","2.0s, 1.5s",2023-07-19_15h21.13.121,Rewa's Exp,2023.1.2,60.01453551765056,
Countdown_1.5s.mp4,green,red,left,Countdown_1.5s.jpg,4,0,4,0,0,0,0,2,0,0,0,1,1,1,5,2,,,,,,,,,,,,719.0212359000143,719.9129790000006,0.8917430999863427,None,0,,space,2,54:46,0,0.8682332000025781,,,,,,,,,,,,,,Annie,2 - with skip,"54:46, 51:49","2.0s, 1.5s",2023-07-19_15h21.13.121,Rewa's Exp,2023.1.2,60.01453551765056,
Countdown_2s.mp4,green,red,left,Countdown_2s.jpg,4,0,4,0,0,0,0,2,0,0,0,1,1,2,6,3,,,,,,,,,,,,723.866915000006,725.513260000007,1.6463450000010198,None,0,,space,2,54:46,0,1.6233704999904148,,,,,,,,,,,,,,Annie,2 - with skip,"54:46, 51:49","2.0s, 1.5s",2023-07-19_15h21.13.121,Rewa's Exp,2023.1.2,60.01453551765056,
Countdown_2s.mp4,red,green,right,Countdown_2s.jpg,4,0,4,0,0,0,0,2,0,0,0,1,1,3,7,1,,,,,,,,,,,,729.426283400011,730.629602800007,1.2033193999959622,None,0,,space,2,54:46,0,1.1831968000042252,,,,,,,,,,,,,,Annie,2 - with skip,"54:46, 51:49","2.0s, 1.5s",2023-07-19_15h21.13.121,Rewa's Exp,2023.1.2,60.01453551765056,
Countdown_1.5s.mp4,green,red,left,Countdown_1.5s.jpg,4,0,4,0,0,0,0,2,0,0,0,1,,,,,0,0,0,2,,,,,,,,734.5608743000048,735.6130757000064,1.0522014000016497,,,,,2,51:49,0,,None,0,,space,1.0335162999981549,,,,,,,,,Annie,2 - with skip,"54:46, 51:49","2.0s, 1.5s",2023-07-19_15h21.13.121,Rewa's Exp,2023.1.2,60.01453551765056,
Countdown_2s.mp4,green,red,left,Countdown_2s.jpg,4,0,4,0,0,0,0,2,0,0,0,1,,,,,0,1,1,3,,,,,,,,739.5505657000031,740.8130092000065,1.2624435000034282,,,,,3,51:49,1,,left,1,1.2360464000084903,None,,,,,,,,,,Annie,2 - with skip,"54:46, 51:49","2.0s, 1.5s",2023-07-19_15h21.13.121,Rewa's Exp,2023.1.2,60.01453551765056,
Countdown_2s.mp4,red,green,right,Countdown_2s.jpg,4,0,4,0,0,0,0,2,0,0,0,1,,,,,0,2,2,1,,,,,,,,744.7457663000096,745.9632519000006,1.2174855999910505,,,,,3,51:49,0,,None,0,,space,1.1922766999923624,,,,,,,,,Annie,2 - with skip,"54:46, 51:49","2.0s, 1.5s",2023-07-19_15h21.13.121,Rewa's Exp,2023.1.2,60.01453551765056,
Countdown_1.5s.mp4,red,green,right,Countdown_1.5s.jpg,4,0,4,0,0,0,0,2,0,0,0,1,,,,,0,3,3,0,,,,,,,,749.8488976000081,750.6798854000081,0.8309878000000026,,,,,3,51:49,0,,None,0,,space,0.8001105000003008,,,,,,,,,Annie,2 - with skip,"54:46, 51:49","2.0s, 1.5s",2023-07-19_15h21.13.121,Rewa's Exp,2023.1.2,60.01453551765056,
Countdown_2s.mp4,green,red,left,Countdown_2s.jpg,4,0,4,0,0,0,0,2,0,0,0,1,,,,,1,0,4,3,,,,,,,,754.6065939000109,755.6129217000125,1.0063278000015998,,,,,3,51:49,0,,None,0,,space,0.9785149999952409,,,,,,,,,Annie,2 - with skip,"54:46, 51:49","2.0s, 1.5s",2023-07-19_15h21.13.121,Rewa's Exp,2023.1.2,60.01453551765056,
Countdown_1.5s.mp4,green,red,left,Countdown_1.5s.jpg,4,0,4,0,0,0,0,2,0,0,0,1,,,,,1,1,5,2,,,,,,,,759.5333556000114,760.6468802000018,1.1135245999903418,,,,,3,51:49,0,,None,0,,space,1.084457899996778,,,,,,,,,Annie,2 - with skip,"54:46, 51:49","2.0s, 1.5s",2023-07-19_15h21.13.121,Rewa's Exp,2023.1.2,60.01453551765056,
Countdown_1.5s.mp4,red,green,right,Countdown_1.5s.jpg,4,0,4,0,0,0,0,2,0,0,0,1,,,,,1,2,6,0,,,,,,,,764.613417600005,765.946333800006,1.3329162000009092,,,,,4,51:49,1,,right,1,1.3090445999987423,None,,,,,,,,,,Annie,2 - with skip,"54:46, 51:49","2.0s, 1.5s",2023-07-19_15h21.13.121,Rewa's Exp,2023.1.2,60.01453551765056,
Countdown_2s.mp4,red,green,right,Countdown_2s.jpg,4,0,4,0,0,0,0,2,0,0,0,1,,,,,1,3,7,1,,,,,,,,769.8442819000047,770.9966028000053,1.1523209000006318,,,,,4,51:49,0,,None,0,,space,1.125726999991457,,,,,,,,,Annie,2 - with skip,"54:46, 51:49","2.0s, 1.5s",2023-07-19_15h21.13.121,Rewa's Exp,2023.1.2,60.01453551765056,
Countdown_2s.mp4,red,green,right,Countdown_2s.jpg,4,0,4,0,0,0,0,2,0,0,0,1,,,,,,,,,,,,,,,,,,,,,,,,,,,,,,,,777.6253567999956,777.6253567999956,777.6253567999956,777.6253567999956,space,1.286828800002695,,,Annie,2 - with skip,"54:46, 51:49","2.0s, 1.5s",2023-07-19_15h21.13.121,Rewa's Exp,2023.1.2,60.01453551765056,
Countdown_2s.mp4,green,red,left,Countdown_2s.jpg,5,0,5,0,0,0,0,1,0,0,0,3,0,0,0,3,,,,,,,,,,,,776.2523708000081,777.429579100004,1.177208299995982,left,1,1.157944899998256,None,5,54:46,1,,,,,,,,,,,,,,,Annie,2 - with skip,"54:46, 51:49","2.0s, 1.5s",2023-07-19_15h21.13.121,Rewa's Exp,2023.1.2,60.01453551765056,
Countdown_1.5s.mp4,green,red,left,Countdown_1.5s.jpg,5,0,5,0,0,0,0,1,0,0,0,3,0,1,1,2,,,,,,,,,,,,781.3294590000005,782.1464857000101,0.8170267000095919,None,0,,space,5,54:46,0,0.7928539999993518,,,,,,,,,,,,,,Annie,2 - with skip,"54:46, 51:49","2.0s, 1.5s",2023-07-19_15h21.13.121,Rewa's Exp,2023.1.2,60.01453551765056,
Countdown_1.5s.mp4,red,green,right,Countdown_1.5s.jpg,5,0,5,0,0,0,0,1,0,0,0,3,0,2,2,0,,,,,,,,,,,,786.0375168000028,787.113151100013,1.0756343000102788,right,1,1.0518056000000797,None,6,54:46,1,,,,,,,,,,,,,,,Annie,2 - with skip,"54:46, 51:49","2.0s, 1.5s",2023-07-19_15h21.13.121,Rewa's Exp,2023.1.2,60.01453551765056,
Countdown_2s.mp4,red,green,right,Countdown_2s.jpg,5,0,5,0,0,0,0,1,0,0,0,3,0,3,3,1,,,,,,,,,,,,791.0835627000051,792.2298971000127,1.1463344000076177,None,0,,space,6,54:46,0,1.1268491000082577,,,,,,,,,,,,,,Annie,2 - with skip,"54:46, 51:49","2.0s, 1.5s",2023-07-19_15h21.13.121,Rewa's Exp,2023.1.2,60.01453551765056,
Countdown_2s.mp4,red,green,right,Countdown_2s.jpg,5,0,5,0,0,0,0,1,0,0,0,3,1,0,4,1,,,,,,,,,,,,796.1538363000145,797.4294910000026,1.2756546999880811,right,1,1.2480036000051768,None,7,54:46,1,,,,,,,,,,,,,,,Annie,2 - with skip,"54:46, 51:49","2.0s, 1.5s",2023-07-19_15h21.13.121,Rewa's Exp,2023.1.2,60.01453551765056,
Countdown_2s.mp4,green,red,left,Countdown_2s.jpg,5,0,5,0,0,0,0,1,0,0,0,3,1,1,5,3,,,,,,,,,,,,801.3983359000122,802.6304495000077,1.2321135999955004,left,1,1.2035885999939637,None,8,54:46,1,,,,,,,,,,,,,,,Annie,2 - with skip,"54:46, 51:49","2.0s, 1.5s",2023-07-19_15h21.13.121,Rewa's Exp,2023.1.2,60.01453551765056,
Countdown_1.5s.mp4,green,red,left,Countdown_1.5s.jpg,5,0,5,0,0,0,0,1,0,0,0,3,1,2,6,2,,,,,,,,,,,,806.5658422000124,807.5632495000027,0.9974072999903001,left,1,0.9644276999897556,None,9,54:46,1,,,,,,,,,,,,,,,Annie,2 - with skip,"54:46, 51:49","2.0s, 1.5s",2023-07-19_15h21.13.121,Rewa's Exp,2023.1.2,60.01453551765056,
Countdown_1.5s.mp4,red,green,right,Countdown_1.5s.jpg,5,0,5,0,0,0,0,1,0,0,0,3,1,3,7,0,,,,,,,,,,,,811.4963773000054,812.5465966000047,1.0502192999992985,None,0,,space,9,54:46,0,1.016818299991428,,,,,,,,,,,,,,Annie,2 - with skip,"54:46, 51:49","2.0s, 1.5s",2023-07-19_15h21.13.121,Rewa's Exp,2023.1.2,60.01453551765056,
Countdown_1.5s.mp4,red,green,right,Countdown_1.5s.jpg,5,0,5,0,0,0,0,1,0,0,0,3,,,,,0,0,0,0,,,,,,,,816.4857373000123,817.496444400007,1.010707099994761,,,,,9,51:49,0,,None,0,,space,0.9872847999940859,,,,,,,,,Annie,2 - with skip,"54:46, 51:49","2.0s, 1.5s",2023-07-19_15h21.13.121,Rewa's Exp,2023.1.2,60.01453551765056,
Countdown_2s.mp4,red,green,right,Countdown_2s.jpg,5,0,5,0,0,0,0,1,0,0,0,3,,,,,0,1,1,1,,,,,,,,821.4406226000137,822.9134288000059,1.472806199992192,,,,,10,51:49,1,,right,1,1.4405442999996012,None,,,,,,,,,,Annie,2 - with skip,"54:46, 51:49","2.0s, 1.5s",2023-07-19_15h21.13.121,Rewa's Exp,2023.1.2,60.01453551765056,
Countdown_1.5s.mp4,green,red,left,Countdown_1.5s.jpg,5,0,5,0,0,0,0,1,0,0,0,3,,,,,0,2,2,2,,,,,,,,826.889835000009,827.7962312000018,0.9063961999927415,,,,,11,51:49,1,,left,1,0.8796784999867668,None,,,,,,,,,,Annie,2 - with skip,"54:46, 51:49","2.0s, 1.5s",2023-07-19_15h21.13.121,Rewa's Exp,2023.1.2,60.01453551765056,
Countdown_2s.mp4,green,red,left,Countdown_2s.jpg,5,0,5,0,0,0,0,1,0,0,0,3,,,,,0,3,3,3,,,,,,,,831.7081074000016,832.8128734000056,1.1047660000040196,,,,,11,51:49,0,,None,0,,space,1.0773862000060035,,,,,,,,,Annie,2 - with skip,"54:46, 51:49","2.0s, 1.5s",2023-07-19_15h21.13.121,Rewa's Exp,2023.1.2,60.01453551765056,
Countdown_1.5s.mp4,green,red,left,Countdown_1.5s.jpg,5,0,5,0,0,0,0,1,0,0,0,3,,,,,1,0,4,2,,,,,,,,836.7516640000104,837.7129016000108,0.9612376000004588,,,,,11,51:49,0,,None,0,,space,0.938307899996289,,,,,,,,,Annie,2 - with skip,"54:46, 51:49","2.0s, 1.5s",2023-07-19_15h21.13.121,Rewa's Exp,2023.1.2,60.01453551765056,
Countdown_2s.mp4,red,green,right,Countdown_2s.jpg,5,0,5,0,0,0,0,1,0,0,0,3,,,,,1,1,5,1,,,,,,,,841.6370365000039,842.9795529000112,1.3425164000072982,,,,,9,51:49,-2,,left,0,1.3170703999930993,None,,,,,,,,,,Annie,2 - with skip,"54:46, 51:49","2.0s, 1.5s",2023-07-19_15h21.13.121,Rewa's Exp,2023.1.2,60.01453551765056,
Countdown_2s.mp4,green,red,left,Countdown_2s.jpg,5,0,5,0,0,0,0,1,0,0,0,3,,,,,1,2,6,3,,,,,,,,846.8759841000137,847.9297485000134,1.0537643999996362,,,,,7,51:49,-2,,right,0,1.0294682999956422,None,,,,,,,,,,Annie,2 - with skip,"54:46, 51:49","2.0s, 1.5s",2023-07-19_15h21.13.121,Rewa's Exp,2023.1.2,60.01453551765056,
Countdown_1.5s.mp4,red,green,right,Countdown_1.5s.jpg,5,0,5,0,0,0,0,1,0,0,0,3,,,,,1,3,7,0,,,,,,,,851.8927827000007,852.679870100008,0.7870874000072945,,,,,7,51:49,0,,None,0,,space,0.7567039999994449,,,,,,,,,Annie,2 - with skip,"54:46, 51:49","2.0s, 1.5s",2023-07-19_15h21.13.121,Rewa's Exp,2023.1.2,60.01453551765056,
Countdown_2s.mp4,green,red,left,Countdown_2s.jpg,5,0,5,0,0,0,0,1,0,0,0,3,,,,,,,,,,,,,,,,,,,,,,,,,,,,,,,,859.2784776000044,859.2784776000044,859.2784776000044,859.2784776000044,space,1.360584399997606,,,Annie,2 - with skip,"54:46, 51:49","2.0s, 1.5s",2023-07-19_15h21.13.121,Rewa's Exp,2023.1.2,60.01453551765056,
Countdown_2s.mp4,green,red,left,Countdown_2s.jpg,6,0,6,0,0,0,0,0,0,0,0,3,0,0,0,3,,,,,,,,,,,,857.989346900009,859.4129860000103,1.42363910000131,left,1,1.4048872999992454,None,8,54:46,1,,,,,,,,,,,,,,,Annie,2 - with skip,"54:46, 51:49","2.0s, 1.5s",2023-07-19_15h21.13.121,Rewa's Exp,2023.1.2,60.01453551765056,
Countdown_1.5s.mp4,red,green,right,Countdown_1.5s.jpg,6,0,6,0,0,0,0,0,0,0,0,3,0,1,1,0,,,,,,,,,,,,863.3247206000087,864.230023600001,0.9053029999922728,None,0,,space,8,54:46,0,0.8763939999917056,,,,,,,,,,,,,,Annie,2 - with skip,"54:46, 51:49","2.0s, 1.5s",2023-07-19_15h21.13.121,Rewa's Exp,2023.1.2,60.01453551765056,
Countdown_2s.mp4,red,green,right,Countdown_2s.jpg,6,0,6,0,0,0,0,0,0,0,0,3,0,2,2,1,,,,,,,,,,,,868.1597454000002,869.4960982000048,1.3363528000045335,left,0,1.3140860999992583,None,6,54:46,-2,,,,,,,,,,,,,,,Annie,2 - with skip,"54:46, 51:49","2.0s, 1.5s",2023-07-19_15h21.13.121,Rewa's Exp,2023.1.2,60.01453551765056,
Countdown_1.5s.mp4,green,red,left,Countdown_1.5s.jpg,6,0,6,0,0,0,0,0,0,0,0,3,0,3,3,2,,,,,,,,,,,,873.4061107000016,874.3469110000005,0.9408002999989549,left,1,0.9074469000042882,None,7,54:46,1,,,,,,,,,,,,,,,Annie,2 - with skip,"54:46, 51:49","2.0s, 1.5s",2023-07-19_15h21.13.121,Rewa's Exp,2023.1.2,60.01453551765056,
Countdown_1.5s.mp4,red,green,right,Countdown_1.5s.jpg,6,0,6,0,0,0,0,0,0,0,0,3,1,0,4,0,,,,,,,,,,,,878.2479794000101,878.9800165000051,0.7320370999950683,None,0,,space,7,54:46,0,0.705145599989919,,,,,,,,,,,,,,Annie,2 - with skip,"54:46, 51:49","2.0s, 1.5s",2023-07-19_15h21.13.121,Rewa's Exp,2023.1.2,60.01453551765056,
Countdown_2s.mp4,red,green,right,Countdown_2s.jpg,6,0,6,0,0,0,0,0,0,0,0,3,1,1,5,1,,,,,,,,,,,,882.9106162000098,884.0795325000072,1.1689162999973632,right,1,1.147312700006296,None,8,54:46,1,,,,,,,,,,,,,,,Annie,2 - with skip,"54:46, 51:49","2.0s, 1.5s",2023-07-19_15h21.13.121,Rewa's Exp,2023.1.2,60.01453551765056,
Countdown_1.5s.mp4,green,red,left,Countdown_1.5s.jpg,6,0,6,0,0,0,0,0,0,0,0,3,1,2,6,2,,,,,,,,,,,,888.032037500001,889.0298579000082,0.9978204000071855,None,0,,space,8,54:46,0,0.9693106000049738,,,,,,,,,,,,,,Annie,2 - with skip,"54:46, 51:49","2.0s, 1.5s",2023-07-19_15h21.13.121,Rewa's Exp,2023.1.2,60.01453551765056,
Countdown_2s.mp4,green,red,left,Countdown_2s.jpg,6,0,6,0,0,0,0,0,0,0,0,3,1,3,7,3,,,,,,,,,,,,892.9918243000138,894.2796680000029,1.2878436999890255,left,1,1.266515299997991,None,9,54:46,1,,,,,,,,,,,,,,,Annie,2 - with skip,"54:46, 51:49","2.0s, 1.5s",2023-07-19_15h21.13.121,Rewa's Exp,2023.1.2,60.01453551765056,
Countdown_1.5s.mp4,green,red,left,Countdown_1.5s.jpg,6,0,6,0,0,0,0,0,0,0,0,3,,,,,0,0,0,2,,,,,,,,898.2311750000081,899.0861695000058,0.8549944999977015,,,,,9,51:49,0,,None,0,,space,0.8183320999960415,,,,,,,,,Annie,2 - with skip,"54:46, 51:49","2.0s, 1.5s",2023-07-19_15h21.13.121,Rewa's Exp,2023.1.2,60.01453551765056,
Countdown_2s.mp4,green,red,left,Countdown_2s.jpg,6,0,6,0,0,0,0,0,0,0,0,3,,,,,0,1,1,3,,,,,,,,902.9859706000134,904.3627774000051,1.3768067999917548,,,,,9,51:49,0,,None,0,,space,1.343704799990519,,,,,,,,,Annie,2 - with skip,"54:46, 51:49","2.0s, 1.5s",2023-07-19_15h21.13.121,Rewa's Exp,2023.1.2,60.01453551765056,
Countdown_1.5s.mp4,red,green,right,Countdown_1.5s.jpg,6,0,6,0,0,0,0,0,0,0,0,3,,,,,0,2,2,0,,,,,,,,908.2567739000078,909.1960981000011,0.9393241999932798,,,,,9,51:49,0,,None,0,,space,0.9203275000036228,,,,,,,,,Annie,2 - with skip,"54:46, 51:49","2.0s, 1.5s",2023-07-19_15h21.13.121,Rewa's Exp,2023.1.2,60.01453551765056,
Countdown_2s.mp4,red,green,right,Countdown_2s.jpg,6,0,6,0,0,0,0,0,0,0,0,3,,,,,0,3,3,1,,,,,,,,913.105066300006,914.5797669000021,1.4747005999961402,,,,,10,51:49,1,,right,1,1.4569799000018975,None,,,,,,,,,,Annie,2 - with skip,"54:46, 51:49","2.0s, 1.5s",2023-07-19_15h21.13.121,Rewa's Exp,2023.1.2,60.01453551765056,
Countdown_1.5s.mp4,green,red,left,Countdown_1.5s.jpg,6,0,6,0,0,0,0,0,0,0,0,3,,,,,1,0,4,2,,,,,,,,918.5396182000113,919.4462467000121,0.9066285000008065,,,,,8,51:49,-2,,right,0,0.8870295999950031,None,,,,,,,,,,Annie,2 - with skip,"54:46, 51:49","2.0s, 1.5s",2023-07-19_15h21.13.121,Rewa's Exp,2023.1.2,60.01453551765056,
Countdown_2s.mp4,red,green,right,Countdown_2s.jpg,6,0,6,0,0,0,0,0,0,0,0,3,,,,,1,1,5,1,,,,,,,,923.3904289000056,924.4463848000014,1.0559558999957517,,,,,8,51:49,0,,None,0,,space,1.035620900001959,,,,,,,,,Annie,2 - with skip,"54:46, 51:49","2.0s, 1.5s",2023-07-19_15h21.13.121,Rewa's Exp,2023.1.2,60.01453551765056,
Countdown_2s.mp4,green,red,left,Countdown_2s.jpg,6,0,6,0,0,0,0,0,0,0,0,3,,,,,1,2,6,3,,,,,,,,928.3545699000097,929.7794581000053,1.424888199995621,,,,,9,51:49,1,,left,1,1.3991229999955976,None,,,,,,,,,,Annie,2 - with skip,"54:46, 51:49","2.0s, 1.5s",2023-07-19_15h21.13.121,Rewa's Exp,2023.1.2,60.01453551765056,
Countdown_1.5s.mp4,red,green,right,Countdown_1.5s.jpg,6,0,6,0,0,0,0,0,0,0,0,3,,,,,1,3,7,0,,,,,,,,933.6942883000011,934.5629921000072,0.8687038000061875,,,,,9,51:49,0,,None,0,,space,0.836406900009024,,,,,,,,,Annie,2 - with skip,"54:46, 51:49","2.0s, 1.5s",2023-07-19_15h21.13.121,Rewa's Exp,2023.1.2,60.01453551765056,
Countdown_2s.mp4,green,red,left,Countdown_2s.jpg,6,0,6,0,0,0,0,0,0,0,0,3,,,,,,,,,,,,,,,,,,,,,,,,,,,,,,,,941.1776690999977,941.1776690999977,941.1776690999977,941.1776690999977,space,2.357700099993963,,,Annie,2 - with skip,"54:46, 51:49","2.0s, 1.5s",2023-07-19_15h21.13.121,Rewa's Exp,2023.1.2,60.01453551765056,
Countdown_2s.mp4,red,green,right,Countdown_2s.jpg,7,0,7,0,0,0,0,2,0,0,0,3,0,0,0,1,,,,,,,,,,,,940.8838962000009,942.4297224000038,1.5458262000029208,left,0,1.5257689999998547,None,7,54:46,-2,,,,,,,,,,,,,,,Annie,2 - with skip,"54:46, 51:49","2.0s, 1.5s",2023-07-19_15h21.13.121,Rewa's Exp,2023.1.2,60.01453551765056,
Countdown_1.5s.mp4,red,green,right,Countdown_1.5s.jpg,7,0,7,0,0,0,0,2,0,0,0,3,0,1,1,0,,,,,,,,,,,,946.3561128000001,947.0966952000017,0.7405824000015855,None,0,,space,7,54:46,0,0.71644180000294,,,,,,,,,,,,,,Annie,2 - with skip,"54:46, 51:49","2.0s, 1.5s",2023-07-19_15h21.13.121,Rewa's Exp,2023.1.2,60.01453551765056,
Countdown_1.5s.mp4,green,red,left,Countdown_1.5s.jpg,7,0,7,0,0,0,0,2,0,0,0,3,0,2,2,2,,,,,,,,,,,,951.0055719000084,952.296136200006,1.2905642999976408,right,0,1.2685265000036452,None,5,54:46,-2,,,,,,,,,,,,,,,Annie,2 - with skip,"54:46, 51:49","2.0s, 1.5s",2023-07-19_15h21.13.121,Rewa's Exp,2023.1.2,60.01453551765056,
Countdown_2s.mp4,green,red,left,Countdown_2s.jpg,7,0,7,0,0,0,0,2,0,0,0,3,0,3,3,3,,,,,,,,,,,,956.245573600012,957.3130015000061,1.0674278999940725,None,0,,space,5,54:46,0,1.0356923999934224,,,,,,,,,,,,,,Annie,2 - with skip,"54:46, 51:49","2.0s, 1.5s",2023-07-19_15h21.13.121,Rewa's Exp,2023.1.2,60.01453551765056,
Countdown_1.5s.mp4,red,green,right,Countdown_1.5s.jpg,7,0,7,0,0,0,0,2,0,0,0,3,1,0,4,0,,,,,,,,,,,,961.2433234000055,962.1629348000133,0.9196114000078524,right,1,0.8942217999865534,None,6,54:46,1,,,,,,,,,,,,,,,Annie,2 - with skip,"54:46, 51:49","2.0s, 1.5s",2023-07-19_15h21.13.121,Rewa's Exp,2023.1.2,60.01453551765056,
Countdown_2s.mp4,red,green,right,Countdown_2s.jpg,7,0,7,0,0,0,0,2,0,0,0,3,1,1,5,1,,,,,,,,,,,,966.0790192000131,967.0628845000028,0.9838652999897022,right,1,0.9541435999999521,None,7,54:46,1,,,,,,,,,,,,,,,Annie,2 - with skip,"54:46, 51:49","2.0s, 1.5s",2023-07-19_15h21.13.121,Rewa's Exp,2023.1.2,60.01453551765056,
Countdown_1.5s.mp4,green,red,left,Countdown_1.5s.jpg,7,0,7,0,0,0,0,2,0,0,0,3,1,2,6,2,,,,,,,,,,,,970.9659874000063,971.9795922000048,1.013604799998575,left,1,0.9876441999949748,None,8,54:46,1,,,,,,,,,,,,,,,Annie,2 - with skip,"54:46, 51:49","2.0s, 1.5s",2023-07-19_15h21.13.121,Rewa's Exp,2023.1.2,60.01453551765056,
Countdown_2s.mp4,green,red,left,Countdown_2s.jpg,7,0,7,0,0,0,0,2,0,0,0,3,1,3,7,3,,,,,,,,,,,,975.9239834000036,977.1460525000002,1.2220690999965882,None,0,,space,8,54:46,0,1.1898274999985006,,,,,,,,,,,,,,Annie,2 - with skip,"54:46, 51:49","2.0s, 1.5s",2023-07-19_15h21.13.121,Rewa's Exp,2023.1.2,60.01453551765056,
Countdown_1.5s.mp4,red,green,right,Countdown_1.5s.jpg,7,0,7,0,0,0,0,2,0,0,0,3,,,,,0,0,0,0,,,,,,,,981.0591857000109,982.0966725000035,1.037486799992621,,,,,6,51:49,-2,,left,0,1.0138042000035057,None,,,,,,,,,,Annie,2 - with skip,"54:46, 51:49","2.0s, 1.5s",2023-07-19_15h21.13.121,Rewa's Exp,2023.1.2,60.01453551765056,
Countdown_2s.mp4,red,green,right,Countdown_2s.jpg,7,0,7,0,0,0,0,2,0,0,0,3,,,,,0,1,1,1,,,,,,,,986.0256479000091,987.2963439000014,1.2706959999923129,,,,,7,51:49,1,,right,1,1.239938999991864,None,,,,,,,,,,Annie,2 - with skip,"54:46, 51:49","2.0s, 1.5s",2023-07-19_15h21.13.121,Rewa's Exp,2023.1.2,60.01453551765056,
Countdown_1.5s.mp4,green,red,left,Countdown_1.5s.jpg,7,0,7,0,0,0,0,2,0,0,0,3,,,,,0,2,2,2,,,,,,,,991.2142792000086,992.0797686000005,0.8654893999919295,,,,,7,51:49,0,,None,0,,space,0.8425662999943597,,,,,,,,,Annie,2 - with skip,"54:46, 51:49","2.0s, 1.5s",2023-07-19_15h21.13.121,Rewa's Exp,2023.1.2,60.01453551765056,
Countdown_2s.mp4,green,red,left,Countdown_2s.jpg,7,0,7,0,0,0,0,2,0,0,0,3,,,,,0,3,3,3,,,,,,,,996.0242609000125,997.0973377000046,1.0730767999921227,,,,,8,51:49,1,,left,1,1.0499621000053594,None,,,,,,,,,,Annie,2 - with skip,"54:46, 51:49","2.0s, 1.5s",2023-07-19_15h21.13.121,Rewa's Exp,2023.1.2,60.01453551765056,
Countdown_2s.mp4,red,green,right,Countdown_2s.jpg,7,0,7,0,0,0,0,2,0,0,0,3,,,,,1,0,4,1,,,,,,,,1001.0657069000008,1002.2966247000004,1.2309177999995882,,,,,8,51:49,0,,None,0,,space,1.2077236000041012,,,,,,,,,Annie,2 - with skip,"54:46, 51:49","2.0s, 1.5s",2023-07-19_15h21.13.121,Rewa's Exp,2023.1.2,60.01453551765056,
Countdown_1.5s.mp4,green,red,left,Countdown_1.5s.jpg,7,0,7,0,0,0,0,2,0,0,0,3,,,,,1,1,5,2,,,,,,,,1006.2266637000139,1007.3126491000003,1.0859853999863844,,,,,8,51:49,0,,None,0,,space,1.0624687999952585,,,,,,,,,Annie,2 - with skip,"54:46, 51:49","2.0s, 1.5s",2023-07-19_15h21.13.121,Rewa's Exp,2023.1.2,60.01453551765056,
Countdown_1.5s.mp4,red,green,right,Countdown_1.5s.jpg,7,0,7,0,0,0,0,2,0,0,0,3,,,,,1,2,6,0,,,,,,,,1011.230097800013,1012.3127874000056,1.082689599992591,,,,,8,51:49,0,,None,0,,space,1.0593415000039386,,,,,,,,,Annie,2 - with skip,"54:46, 51:49","2.0s, 1.5s",2023-07-19_15h21.13.121,Rewa's Exp,2023.1.2,60.01453551765056,
Countdown_2s.mp4,green,red,left,Countdown_2s.jpg,7,0,7,0,0,0,0,2,0,0,0,3,,,,,1,3,7,3,,,,,,,,1016.2704567000037,1017.2794283000112,1.0089716000074986,,,,,8,51:49,0,,None,0,,space,0.9863599999953294,,,,,,,,,Annie,2 - with skip,"54:46, 51:49","2.0s, 1.5s",2023-07-19_15h21.13.121,Rewa's Exp,2023.1.2,60.01453551765056,
Countdown_2s.mp4,green,red,left,Countdown_2s.jpg,7,0,7,0,0,0,0,2,0,0,0,3,,,,,,,,,,,,,,,,,,,,,,,,,,,,,,,,1023.8682168999949,1023.8682168999949,1023.8682168999949,1023.8682168999949,space,1.7791040999873076,,,Annie,2 - with skip,"54:46, 51:49","2.0s, 1.5s",2023-07-19_15h21.13.121,Rewa's Exp,2023.1.2,60.01453551765056,
Countdown_1.5s.mp4,green,red,left,Countdown_1.5s.jpg,8,0,8,0,0,0,0,2,0,0,0,0,0,0,0,2,,,,,,,,,,,,1022.997389000011,1023.8129272000078,0.8155381999968085,None,0,,space,8,54:46,0,0.797062099998584,,,,,,,,,,,,,,Annie,2 - with skip,"54:46, 51:49","2.0s, 1.5s",2023-07-19_15h21.13.121,Rewa's Exp,2023.1.2,60.01453551765056,
Countdown_1.5s.mp4,red,green,right,Countdown_1.5s.jpg,8,0,8,0,0,0,0,2,0,0,0,0,0,1,1,0,,,,,,,,,,,,1027.6916112000035,1028.512661300003,0.821050099999411,None,0,,space,8,54:46,0,0.7893502000079025,,,,,,,,,,,,,,Annie,2 - with skip,"54:46, 51:49","2.0s, 1.5s",2023-07-19_15h21.13.121,Rewa's Exp,2023.1.2,60.01453551765056,
Countdown_2s.mp4,red,green,right,Countdown_2s.jpg,8,0,8,0,0,0,0,2,0,0,0,0,0,2,2,1,,,,,,,,,,,,1032.424874000004,1033.5293766000104,1.1045026000065263,right,1,1.0735058999998728,None,9,54:46,1,,,,,,,,,,,,,,,Annie,2 - with skip,"54:46, 51:49","2.0s, 1.5s",2023-07-19_15h21.13.121,Rewa's Exp,2023.1.2,60.01453551765056,
Countdown_2s.mp4,green,red,left,Countdown_2s.jpg,8,0,8,0,0,0,0,2,0,0,0,0,0,3,3,3,,,,,,,,,,,,1037.41699350001,1038.1796292000072,0.7626356999971904,None,0,,space,9,54:46,0,0.7443244000023697,,,,,,,,,,,,,,Annie,2 - with skip,"54:46, 51:49","2.0s, 1.5s",2023-07-19_15h21.13.121,Rewa's Exp,2023.1.2,60.01453551765056,
Countdown_2s.mp4,green,red,left,Countdown_2s.jpg,8,0,8,0,0,0,0,2,0,0,0,0,1,0,4,3,,,,,,,,,,,,1042.0936380000057,1043.1294729000074,1.035834900001646,None,0,,space,9,54:46,0,1.0124732999975095,,,,,,,,,,,,,,Annie,2 - with skip,"54:46, 51:49","2.0s, 1.5s",2023-07-19_15h21.13.121,Rewa's Exp,2023.1.2,60.01453551765056,
Countdown_2s.mp4,red,green,right,Countdown_2s.jpg,8,0,8,0,0,0,0,2,0,0,0,0,1,1,5,1,,,,,,,,,,,,1047.0997329000093,1048.1793393000116,1.0796064000023762,None,0,,space,9,54:46,0,1.0614571999904001,,,,,,,,,,,,,,Annie,2 - with skip,"54:46, 51:49","2.0s, 1.5s",2023-07-19_15h21.13.121,Rewa's Exp,2023.1.2,60.01453551765056,
Countdown_1.5s.mp4,green,red,left,Countdown_1.5s.jpg,8,0,8,0,0,0,0,2,0,0,0,0,1,2,6,2,,,,,,,,,,,,1052.0932062000065,1052.929645000011,0.8364388000045437,left,1,0.8037332000094466,None,10,54:46,1,,,,,,,,,,,,,,,Annie,2 - with skip,"54:46, 51:49","2.0s, 1.5s",2023-07-19_15h21.13.121,Rewa's Exp,2023.1.2,60.01453551765056,
Countdown_1.5s.mp4,red,green,right,Countdown_1.5s.jpg,8,0,8,0,0,0,0,2,0,0,0,0,1,3,7,0,,,,,,,,,,,,1056.9079057000054,1057.9462759000016,1.0383701999962796,None,0,,space,10,54:46,0,1.0136151000042446,,,,,,,,,,,,,,Annie,2 - with skip,"54:46, 51:49","2.0s, 1.5s",2023-07-19_15h21.13.121,Rewa's Exp,2023.1.2,60.01453551765056,
Countdown_2s.mp4,red,green,right,Countdown_2s.jpg,8,0,8,0,0,0,0,2,0,0,0,0,,,,,0,0,0,1,,,,,,,,1061.8782565000001,1063.1134582000086,1.2352017000084743,,,,,10,51:49,0,,None,0,,space,1.210219100001268,,,,,,,,,Annie,2 - with skip,"54:46, 51:49","2.0s, 1.5s",2023-07-19_15h21.13.121,Rewa's Exp,2023.1.2,60.01453551765056,
Countdown_1.5s.mp4,red,green,right,Countdown_1.5s.jpg,8,0,8,0,0,0,0,2,0,0,0,0,,,,,0,1,1,0,,,,,,,,1067.0767805000069,1068.1462492000137,1.069468700006837,,,,,8,51:49,-2,,left,0,1.0373789000004763,None,,,,,,,,,,Annie,2 - with skip,"54:46, 51:49","2.0s, 1.5s",2023-07-19_15h21.13.121,Rewa's Exp,2023.1.2,60.01453551765056,
Countdown_1.5s.mp4,green,red,left,Countdown_1.5s.jpg,8,0,8,0,0,0,0,2,0,0,0,0,,,,,0,2,2,2,,,,,,,,1072.089533300008,1073.1126605000027,1.023127199994633,,,,,8,51:49,0,,None,0,,space,0.9997563999932026,,,,,,,,,Annie,2 - with skip,"54:46, 51:49","2.0s, 1.5s",2023-07-19_15h21.13.121,Rewa's Exp,2023.1.2,60.01453551765056,
Countdown_2s.mp4,green,red,left,Countdown_2s.jpg,8,0,8,0,0,0,0,2,0,0,0,0,,,,,0,3,3,3,,,,,,,,1077.0040229000006,1078.112946600013,1.108923700012383,,,,,9,51:49,1,,left,1,1.0852329999906942,None,,,,,,,,,,Annie,2 - with skip,"54:46, 51:49","2.0s, 1.5s",2023-07-19_15h21.13.121,Rewa's Exp,2023.1.2,60.01453551765056,
Countdown_1.5s.mp4,red,green,right,Countdown_1.5s.jpg,8,0,8,0,0,0,0,2,0,0,0,0,,,,,1,0,4,0,,,,,,,,1082.0828639000101,1083.0292912000004,0.9464272999903187,,,,,9,51:49,0,,None,0,,space,0.9272835000010673,,,,,,,,,Annie,2 - with skip,"54:46, 51:49","2.0s, 1.5s",2023-07-19_15h21.13.121,Rewa's Exp,2023.1.2,60.01453551765056,
Countdown_2s.mp4,green,red,left,Countdown_2s.jpg,8,0,8,0,0,0,0,2,0,0,0,0,,,,,1,1,5,3,,,,,,,,1086.9096045000042,1088.1462727000035,1.236668199999258,,,,,10,51:49,1,,left,1,1.2121789999946486,None,,,,,,,,,,Annie,2 - with skip,"54:46, 51:49","2.0s, 1.5s",2023-07-19_15h21.13.121,Rewa's Exp,2023.1.2,60.01453551765056,
Countdown_2s.mp4,red,green,right,Countdown_2s.jpg,8,0,8,0,0,0,0,2,0,0,0,0,,,,,1,2,6,1,,,,,,,,1092.113937000002,1092.9627406000072,0.8488036000053398,,,,,10,51:49,0,,None,0,,space,0.8225651999964612,,,,,,,,,Annie,2 - with skip,"54:46, 51:49","2.0s, 1.5s",2023-07-19_15h21.13.121,Rewa's Exp,2023.1.2,60.01453551765056,
Countdown_1.5s.mp4,green,red,left,Countdown_1.5s.jpg,8,0,8,0,0,0,0,2,0,0,0,0,,,,,1,3,7,2,,,,,,,,1096.9050294000044,1097.863041900011,0.9580125000065891,,,,,11,51:49,1,,left,1,0.9377578999992693,None,,,,,,,,,,Annie,2 - with skip,"54:46, 51:49","2.0s, 1.5s",2023-07-19_15h21.13.121,Rewa's Exp,2023.1.2,60.01453551765056,
Countdown_1.5s.mp4,red,green,right,Countdown_1.5s.jpg,8,0,8,0,0,0,0,2,0,0,0,0,,,,,,,,,,,,,,,,,,,,,,,,,,,,,,,,1104.4681120000023,1104.4681120000023,1104.4681120000023,1104.4681120000023,space,1.6418596000003163,,,Annie,2 - with skip,"54:46, 51:49","2.0s, 1.5s",2023-07-19_15h21.13.121,Rewa's Exp,2023.1.2,60.01453551765056,
Countdown_2s.mp4,green,red,left,Countdown_2s.jpg,9,0,9,0,0,0,0,3,0,0,0,0,0,0,0,3,,,,,,,,,,,,1103.4710932000016,1104.7626722000132,1.2915790000115521,left,1,1.2669341000000713,None,12,54:46,1,,,,,,,,,,,,,,,Annie,2 - with skip,"54:46, 51:49","2.0s, 1.5s",2023-07-19_15h21.13.121,Rewa's Exp,2023.1.2,60.01453551765056,
Countdown_2s.mp4,red,green,right,Countdown_2s.jpg,9,0,9,0,0,0,0,3,0,0,0,0,0,1,1,1,,,,,,,,,,,,1108.7210965000122,1109.6126532000053,0.8915566999930888,None,0,,space,12,54:46,0,0.8632558999961475,,,,,,,,,,,,,,Annie,2 - with skip,"54:46, 51:49","2.0s, 1.5s",2023-07-19_15h21.13.121,Rewa's Exp,2023.1.2,60.01453551765056,
Countdown_1.5s.mp4,red,green,right,Countdown_1.5s.jpg,9,0,9,0,0,0,0,3,0,0,0,0,0,2,2,0,,,,,,,,,,,,1113.5589405000064,1114.5792957000085,1.0203552000020863,None,0,,space,12,54:46,0,1.002817899992806,,,,,,,,,,,,,,Annie,2 - with skip,"54:46, 51:49","2.0s, 1.5s",2023-07-19_15h21.13.121,Rewa's Exp,2023.1.2,60.01453551765056,
Countdown_1.5s.mp4,green,red,left,Countdown_1.5s.jpg,9,0,9,0,0,0,0,3,0,0,0,0,0,3,3,2,,,,,,,,,,,,1118.4891328000085,1119.296038600005,0.8069057999964571,None,0,,space,12,54:46,0,0.7838345999916783,,,,,,,,,,,,,,Annie,2 - with skip,"54:46, 51:49","2.0s, 1.5s",2023-07-19_15h21.13.121,Rewa's Exp,2023.1.2,60.01453551765056,
Countdown_1.5s.mp4,red,green,right,Countdown_1.5s.jpg,9,0,9,0,0,0,0,3,0,0,0,0,1,0,4,0,,,,,,,,,,,,1123.2369728000049,1124.129708700013,0.8927359000081196,right,1,0.8686034999991534,None,13,54:46,1,,,,,,,,,,,,,,,Annie,2 - with skip,"54:46, 51:49","2.0s, 1.5s",2023-07-19_15h21.13.121,Rewa's Exp,2023.1.2,60.01453551765056,
Countdown_1.5s.mp4,green,red,left,Countdown_1.5s.jpg,9,0,9,0,0,0,0,3,0,0,0,0,1,1,5,2,,,,,,,,,,,,1128.0871045000094,1128.7796982000145,0.6925937000050908,None,0,,space,13,54:46,0,0.6651287999993656,,,,,,,,,,,,,,Annie,2 - with skip,"54:46, 51:49","2.0s, 1.5s",2023-07-19_15h21.13.121,Rewa's Exp,2023.1.2,60.01453551765056,
Countdown_2s.mp4,green,red,left,Countdown_2s.jpg,9,0,9,0,0,0,0,3,0,0,0,0,1,2,6,3,,,,,,,,,,,,1132.7213570000022,1134.0959494000126,1.3745924000104424,None,0,,space,13,54:46,0,1.343498999995063,,,,,,,,,,,,,,Annie,2 - with skip,"54:46, 51:49","2.0s, 1.5s",2023-07-19_15h21.13.121,Rewa's Exp,2023.1.2,60.01453551765056,
Countdown_2s.mp4,red,green,right,Countdown_2s.jpg,9,0,9,0,0,0,0,3,0,0,0,0,1,3,7,1,,,,,,,,,,,,1138.002298700012,1139.2126518000005,1.2103530999884242,None,0,,space,13,54:46,0,1.1912689000018872,,,,,,,,,,,,,,Annie,2 - with skip,"54:46, 51:49","2.0s, 1.5s",2023-07-19_15h21.13.121,Rewa's Exp,2023.1.2,60.01453551765056,
Countdown_1.5s.mp4,green,red,left,Countdown_1.5s.jpg,9,0,9,0,0,0,0,3,0,0,0,0,,,,,0,0,0,2,,,,,,,,1143.114493000001,1144.0456850000046,0.931192000003648,,,,,13,51:49,0,,None,0,,space,0.9017924000072526,,,,,,,,,Annie,2 - with skip,"54:46, 51:49","2.0s, 1.5s",2023-07-19_15h21.13.121,Rewa's Exp,2023.1.2,60.01453551765056,
Countdown_2s.mp4,green,red,left,Countdown_2s.jpg,9,0,9,0,0,0,0,3,0,0,0,0,,,,,0,1,1,3,,,,,,,,1147.9941156000132,1149.012563100012,1.0184474999987287,,,,,13,51:49,0,,None,0,,space,0.9991502000048058,,,,,,,,,Annie,2 - with skip,"54:46, 51:49","2.0s, 1.5s",2023-07-19_15h21.13.121,Rewa's Exp,2023.1.2,60.01453551765056,
Countdown_1.5s.mp4,red,green,right,Countdown_1.5s.jpg,9,0,9,0,0,0,0,3,0,0,0,0,,,,,0,2,2,0,,,,,,,,1152.9122394000005,1153.8959990000003,0.9837595999997575,,,,,14,51:49,1,,right,1,0.9528980999893975,None,,,,,,,,,,Annie,2 - with skip,"54:46, 51:49","2.0s, 1.5s",2023-07-19_15h21.13.121,Rewa's Exp,2023.1.2,60.01453551765056,
Countdown_2s.mp4,red,green,right,Countdown_2s.jpg,9,0,9,0,0,0,0,3,0,0,0,0,,,,,0,3,3,1,,,,,,,,1157.7834576000023,1159.4632573000126,1.679799700010335,,,,,14,51:49,0,,None,0,,space,1.657887800000026,,,,,,,,,Annie,2 - with skip,"54:46, 51:49","2.0s, 1.5s",2023-07-19_15h21.13.121,Rewa's Exp,2023.1.2,60.01453551765056,
Countdown_2s.mp4,green,red,left,Countdown_2s.jpg,9,0,9,0,0,0,0,3,0,0,0,0,,,,,1,0,4,3,,,,,,,,1163.3805592000135,1164.2292725000007,0.8487132999871392,,,,,14,51:49,0,,None,0,,space,0.8198576999857323,,,,,,,,,Annie,2 - with skip,"54:46, 51:49","2.0s, 1.5s",2023-07-19_15h21.13.121,Rewa's Exp,2023.1.2,60.01453551765056,
Countdown_1.5s.mp4,red,green,right,Countdown_1.5s.jpg,9,0,9,0,0,0,0,3,0,0,0,0,,,,,1,1,5,0,,,,,,,,1168.1909483000054,1169.2800771000038,1.0891287999984343,,,,,14,51:49,0,,None,0,,space,1.0654292999970494,,,,,,,,,Annie,2 - with skip,"54:46, 51:49","2.0s, 1.5s",2023-07-19_15h21.13.121,Rewa's Exp,2023.1.2,60.01453551765056,
Countdown_1.5s.mp4,green,red,left,Countdown_1.5s.jpg,9,0,9,0,0,0,0,3,0,0,0,0,,,,,1,2,6,2,,,,,,,,1173.2235906000133,1174.3959059000044,1.172315299991169,,,,,14,51:49,0,,None,0,,space,1.1539817999873776,,,,,,,,,Annie,2 - with skip,"54:46, 51:49","2.0s, 1.5s",2023-07-19_15h21.13.121,Rewa's Exp,2023.1.2,60.01453551765056,
Countdown_2s.mp4,red,green,right,Countdown_2s.jpg,9,0,9,0,0,0,0,3,0,0,0,0,,,,,1,3,7,1,,,,,,,,1178.3596611000103,1179.7291237000027,1.3694625999924028,,,,,14,51:49,0,,None,0,,space,1.3446471999923233,,,,,,,,,Annie,2 - with skip,"54:46, 51:49","2.0s, 1.5s",2023-07-19_15h21.13.121,Rewa's Exp,2023.1.2,60.01453551765056,
Countdown_1.5s.mp4,red,green,right,Countdown_1.5s.jpg,9,0,9,0,0,0,0,3,0,0,0,0,,,,,,,,,,,,,,,,,,,,,,,,,,,,,,,,1186.3202874999988,1186.3202874999988,1186.3202874999988,1186.3202874999988,space,2.1893373999919277,,,Annie,2 - with skip,"54:46, 51:49","2.0s, 1.5s",2023-07-19_15h21.13.121,Rewa's Exp,2023.1.2,60.01453551765056,
Countdown_2s.mp4,green,red,left,Countdown_2s.jpg,10,0,10,0,0,0,0,2,0,0,0,0,0,0,0,3,,,,,,,,,,,,1185.8622528000124,1187.2791768000025,1.4169239999901038,left,1,1.3866812999913236,None,15,54:46,1,,,,,,,,,,,,,,,Annie,2 - with skip,"54:46, 51:49","2.0s, 1.5s",2023-07-19_15h21.13.121,Rewa's Exp,2023.1.2,60.01453551765056,
Countdown_1.5s.mp4,red,green,right,Countdown_1.5s.jpg,10,0,10,0,0,0,0,2,0,0,0,0,0,1,1,0,,,,,,,,,,,,1191.194900900009,1192.2252152,1.030314299991005,None,0,,space,15,54:46,0,1.0065409999951953,,,,,,,,,,,,,,Annie,2 - with skip,"54:46, 51:49","2.0s, 1.5s",2023-07-19_15h21.13.121,Rewa's Exp,2023.1.2,60.01453551765056,
Countdown_1.5s.mp4,green,red,left,Countdown_1.5s.jpg,10,0,10,0,0,0,0,2,0,0,0,0,0,2,2,2,,,,,,,,,,,,1196.1422246000002,1197.379405700005,1.2371811000048183,None,0,,space,15,54:46,0,1.2192050999874482,,,,,,,,,,,,,,Annie,2 - with skip,"54:46, 51:49","2.0s, 1.5s",2023-07-19_15h21.13.121,Rewa's Exp,2023.1.2,60.01453551765056,
Countdown_2s.mp4,red,green,right,Countdown_2s.jpg,10,0,10,0,0,0,0,2,0,0,0,0,0,3,3,1,,,,,,,,,,,,1201.3444663000118,1202.3293877000106,0.9849213999987114,None,0,,space,15,54:46,0,0.9597395000018878,,,,,,,,,,,,,,Annie,2 - with skip,"54:46, 51:49","2.0s, 1.5s",2023-07-19_15h21.13.121,Rewa's Exp,2023.1.2,60.01453551765056,
Countdown_1.5s.mp4,red,green,right,Countdown_1.5s.jpg,10,0,10,0,0,0,0,2,0,0,0,0,1,0,4,0,,,,,,,,,,,,1206.2431637000118,1207.445876400001,1.2027126999892062,None,0,,space,15,54:46,0,1.172759599998244,,,,,,,,,,,,,,Annie,2 - with skip,"54:46, 51:49","2.0s, 1.5s",2023-07-19_15h21.13.121,Rewa's Exp,2023.1.2,60.01453551765056,
Countdown_1.5s.mp4,green,red,left,Countdown_1.5s.jpg,10,0,10,0,0,0,0,2,0,0,0,0,1,1,5,2,,,,,,,,,,,,1211.3618858000118,1212.495723800006,1.1338379999942845,left,1,1.11105380000663,None,16,54:46,1,,,,,,,,,,,,,,,Annie,2 - with skip,"54:46, 51:49","2.0s, 1.5s",2023-07-19_15h21.13.121,Rewa's Exp,2023.1.2,60.01453551765056,
Countdown_2s.mp4,green,red,left,Countdown_2s.jpg,10,0,10,0,0,0,0,2,0,0,0,0,1,2,6,3,,,,,,,,,,,,1216.45008770001,1217.6625106000138,1.2124229000037303,None,0,,space,16,54:46,0,1.1826581999921473,,,,,,,,,,,,,,Annie,2 - with skip,"54:46, 51:49","2.0s, 1.5s",2023-07-19_15h21.13.121,Rewa's Exp,2023.1.2,60.01453551765056,
Countdown_2s.mp4,red,green,right,Countdown_2s.jpg,10,0,10,0,0,0,0,2,0,0,0,0,1,3,7,1,,,,,,,,,,,,1221.6110645000008,1222.8624877000111,1.251423200010322,right,1,1.2309591000084765,None,17,54:46,1,,,,,,,,,,,,,,,Annie,2 - with skip,"54:46, 51:49","2.0s, 1.5s",2023-07-19_15h21.13.121,Rewa's Exp,2023.1.2,60.01453551765056,
Countdown_1.5s.mp4,red,green,right,Countdown_1.5s.jpg,10,0,10,0,0,0,0,2,0,0,0,0,,,,,0,0,0,0,,,,,,,,1226.7959394000063,1227.795649800013,0.9997104000067338,,,,,17,51:49,0,,None,0,,space,0.9813033999962499,,,,,,,,,Annie,2 - with skip,"54:46, 51:49","2.0s, 1.5s",2023-07-19_15h21.13.121,Rewa's Exp,2023.1.2,60.01453551765056,
Countdown_2s.mp4,red,green,right,Countdown_2s.jpg,10,0,10,0,0,0,0,2,0,0,0,0,,,,,0,1,1,1,,,,,,,,1231.7264091000106,1233.112442800004,1.386033699993277,,,,,17,51:49,0,,None,0,,space,1.362559200002579,,,,,,,,,Annie,2 - with skip,"54:46, 51:49","2.0s, 1.5s",2023-07-19_15h21.13.121,Rewa's Exp,2023.1.2,60.01453551765056,
Countdown_2s.mp4,green,red,left,Countdown_2s.jpg,10,0,10,0,0,0,0,2,0,0,0,0,,,,,0,2,2,3,,,,,,,,1237.0043950000108,1238.4125451,1.4081500999891432,,,,,17,51:49,0,,None,0,,space,1.3806586999999126,,,,,,,,,Annie,2 - with skip,"54:46, 51:49","2.0s, 1.5s",2023-07-19_15h21.13.121,Rewa's Exp,2023.1.2,60.01453551765056,
Countdown_1.5s.mp4,green,red,left,Countdown_1.5s.jpg,10,0,10,0,0,0,0,2,0,0,0,0,,,,,0,3,3,2,,,,,,,,1242.3372593000095,1243.4457349000004,1.1084755999909248,,,,,17,51:49,0,,None,0,,space,1.0874795999989146,,,,,,,,,Annie,2 - with skip,"54:46, 51:49","2.0s, 1.5s",2023-07-19_15h21.13.121,Rewa's Exp,2023.1.2,60.01453551765056,
Countdown_2s.mp4,red,green,right,Countdown_2s.jpg,10,0,10,0,0,0,0,2,0,0,0,0,,,,,1,0,4,1,,,,,,,,1247.3751548,1248.8790982000064,1.503943400006392,,,,,17,51:49,0,,None,0,,space,1.4824804999952903,,,,,,,,,Annie,2 - with skip,"54:46, 51:49","2.0s, 1.5s",2023-07-19_15h21.13.121,Rewa's Exp,2023.1.2,60.01453551765056,
Countdown_1.5s.mp4,red,green,right,Countdown_1.5s.jpg,10,0,10,0,0,0,0,2,0,0,0,0,,,,,1,1,5,0,,,,,,,,1252.8247643000068,1254.1461219000048,1.3213575999980094,,,,,15,51:49,-2,,left,0,1.2965121999877738,None,,,,,,,,,,Annie,2 - with skip,"54:46, 51:49","2.0s, 1.5s",2023-07-19_15h21.13.121,Rewa's Exp,2023.1.2,60.01453551765056,
Countdown_2s.mp4,green,red,left,Countdown_2s.jpg,10,0,10,0,0,0,0,2,0,0,0,0,,,,,1,2,6,3,,,,,,,,1258.0735428000044,1259.6628675000102,1.5893247000058182,,,,,16,51:49,1,,left,1,1.5678550000011455,None,,,,,,,,,,Annie,2 - with skip,"54:46, 51:49","2.0s, 1.5s",2023-07-19_15h21.13.121,Rewa's Exp,2023.1.2,60.01453551765056,
Countdown_1.5s.mp4,green,red,left,Countdown_1.5s.jpg,10,0,10,0,0,0,0,2,0,0,0,0,,,,,1,3,7,2,,,,,,,,1263.6194958000124,1264.829123100004,1.2096272999915527,,,,,16,51:49,0,,None,0,,space,1.1811871999962023,,,,,,,,,Annie,2 - with skip,"54:46, 51:49","2.0s, 1.5s",2023-07-19_15h21.13.121,Rewa's Exp,2023.1.2,60.01453551765056,
Countdown_1.5s.mp4,red,green,right,Countdown_1.5s.jpg,10,0,10,0,0,0,0,2,0,0,0,0,,,,,,,,,,,,,,,,,,,,,,,,,,,,,,,,1271.4432991000067,1271.4432991000067,1271.4432991000067,1271.4432991000067,space,2.395096799984458,,,Annie,2 - with skip,"54:46, 51:49","2.0s, 1.5s",2023-07-19_15h21.13.121,Rewa's Exp,2023.1.2,60.01453551765056,
Countdown_2s.mp4,red,green,right,Countdown_2s.jpg,11,0,11,0,0,0,0,3,0,0,0,0,0,0,0,1,,,,,,,,,,,,1271.1988833000069,1272.179291700013,0.9804084000061266,right,1,0.9627660000114702,None,17,54:46,1,,,,,,,,,,,,,,,Annie,2 - with skip,"54:46, 51:49","2.0s, 1.5s",2023-07-19_15h21.13.121,Rewa's Exp,2023.1.2,60.01453551765056,
Countdown_2s.mp4,green,red,left,Countdown_2s.jpg,11,0,11,0,0,0,0,3,0,0,0,0,0,1,1,3,,,,,,,,,,,,1276.0737414000032,1277.3461924000003,1.2724509999970905,left,1,1.2483825999952387,None,18,54:46,1,,,,,,,,,,,,,,,Annie,2 - with skip,"54:46, 51:49","2.0s, 1.5s",2023-07-19_15h21.13.121,Rewa's Exp,2023.1.2,60.01453551765056,
Countdown_1.5s.mp4,green,red,left,Countdown_1.5s.jpg,11,0,11,0,0,0,0,3,0,0,0,0,0,2,2,2,,,,,,,,,,,,1281.31624320001,1282.529517300005,1.2132740999950329,None,0,,space,18,54:46,0,1.1800326999946265,,,,,,,,,,,,,,Annie,2 - with skip,"54:46, 51:49","2.0s, 1.5s",2023-07-19_15h21.13.121,Rewa's Exp,2023.1.2,60.01453551765056,
Countdown_1.5s.mp4,red,green,right,Countdown_1.5s.jpg,11,0,11,0,0,0,0,3,0,0,0,0,0,3,3,0,,,,,,,,,,,,1286.48468400001,1287.562648200008,1.0779641999979503,right,1,1.0603055999963544,None,19,54:46,1,,,,,,,,,,,,,,,Annie,2 - with skip,"54:46, 51:49","2.0s, 1.5s",2023-07-19_15h21.13.121,Rewa's Exp,2023.1.2,60.01453551765056,
Countdown_2s.mp4,green,red,left,Countdown_2s.jpg,11,0,11,0,0,0,0,3,0,0,0,0,1,0,4,3,,,,,,,,,,,,1291.5132998000045,1292.8631078000035,1.3498079999990296,None,0,,space,19,54:46,0,1.3187013999995543,,,,,,,,,,,,,,Annie,2 - with skip,"54:46, 51:49","2.0s, 1.5s",2023-07-19_15h21.13.121,Rewa's Exp,2023.1.2,60.01453551765056,
Countdown_1.5s.mp4,red,green,right,Countdown_1.5s.jpg,11,0,11,0,0,0,0,3,0,0,0,0,1,1,5,0,,,,,,,,,,,,1296.8071685000032,1297.779153800002,0.9719852999987779,None,0,,space,19,54:46,0,0.9544246000004932,,,,,,,,,,,,,,Annie,2 - with skip,"54:46, 51:49","2.0s, 1.5s",2023-07-19_15h21.13.121,Rewa's Exp,2023.1.2,60.01453551765056,
Countdown_2s.mp4,red,green,right,Countdown_2s.jpg,11,0,11,0,0,0,0,3,0,0,0,0,1,2,6,1,,,,,,,,,,,,1301.6765191000013,1302.8457997000078,1.1692806000064593,right,1,1.1399717000022065,None,20,54:46,1,,,,,,,,,,,,,,,Annie,2 - with skip,"54:46, 51:49","2.0s, 1.5s",2023-07-19_15h21.13.121,Rewa's Exp,2023.1.2,60.01453551765056,
Countdown_1.5s.mp4,green,red,left,Countdown_1.5s.jpg,11,0,11,0,0,0,0,3,0,0,0,0,1,3,7,2,,,,,,,,,,,,1306.743885200005,1307.612968500005,0.8690833000000566,None,0,,space,20,54:46,0,0.848960100003751,,,,,,,,,,,,,,Annie,2 - with skip,"54:46, 51:49","2.0s, 1.5s",2023-07-19_15h21.13.121,Rewa's Exp,2023.1.2,60.01453551765056,
Countdown_1.5s.mp4,red,green,right,Countdown_1.5s.jpg,11,0,11,0,0,0,0,3,0,0,0,0,,,,,0,0,0,0,,,,,,,,1311.5704717000044,1312.7122602000018,1.1417884999973467,,,,,20,51:49,0,,None,0,,space,1.1107136000064202,,,,,,,,,Annie,2 - with skip,"54:46, 51:49","2.0s, 1.5s",2023-07-19_15h21.13.121,Rewa's Exp,2023.1.2,60.01453551765056,
Countdown_1.5s.mp4,green,red,left,Countdown_1.5s.jpg,11,0,11,0,0,0,0,3,0,0,0,0,,,,,0,1,1,2,,,,,,,,1316.6952631000022,1317.6797468000004,0.9844836999982363,,,,,20,51:49,0,,None,0,,space,0.9621375999995507,,,,,,,,,Annie,2 - with skip,"54:46, 51:49","2.0s, 1.5s",2023-07-19_15h21.13.121,Rewa's Exp,2023.1.2,60.01453551765056,
Countdown_2s.mp4,red,green,right,Countdown_2s.jpg,11,0,11,0,0,0,0,3,0,0,0,0,,,,,0,2,2,1,,,,,,,,1321.594480700005,1322.6457823000092,1.0513016000040807,,,,,18,51:49,-2,,left,0,1.0307445999933407,None,,,,,,,,,,Annie,2 - with skip,"54:46, 51:49","2.0s, 1.5s",2023-07-19_15h21.13.121,Rewa's Exp,2023.1.2,60.01453551765056,
Countdown_2s.mp4,green,red,left,Countdown_2s.jpg,11,0,11,0,0,0,0,3,0,0,0,0,,,,,0,3,3,3,,,,,,,,1326.5981776000117,1327.7454750000034,1.1472973999916576,,,,,16,51:49,-2,,right,0,1.122974300000351,None,,,,,,,,,,Annie,2 - with skip,"54:46, 51:49","2.0s, 1.5s",2023-07-19_15h21.13.121,Rewa's Exp,2023.1.2,60.01453551765056,
Countdown_2s.mp4,red,green,right,Countdown_2s.jpg,11,0,11,0,0,0,0,3,0,0,0,0,,,,,1,0,4,1,,,,,,,,1331.668219900006,1332.7961466000124,1.1279267000063555,,,,,16,51:49,0,,None,0,,space,1.109493099997053,,,,,,,,,Annie,2 - with skip,"54:46, 51:49","2.0s, 1.5s",2023-07-19_15h21.13.121,Rewa's Exp,2023.1.2,60.01453551765056,
Countdown_2s.mp4,green,red,left,Countdown_2s.jpg,11,0,11,0,0,0,0,3,0,0,0,0,,,,,1,1,5,3,,,,,,,,1336.738778400002,1337.99599760001,1.2572192000079667,,,,,17,51:49,1,,left,1,1.2301618000055896,None,,,,,,,,,,Annie,2 - with skip,"54:46, 51:49","2.0s, 1.5s",2023-07-19_15h21.13.121,Rewa's Exp,2023.1.2,60.01453551765056,
Countdown_1.5s.mp4,red,green,right,Countdown_1.5s.jpg,11,0,11,0,0,0,0,3,0,0,0,0,,,,,1,2,6,0,,,,,,,,1341.9096861000144,1342.7459390000004,0.8362528999859933,,,,,17,51:49,0,,None,0,,space,0.8038009999872884,,,,,,,,,Annie,2 - with skip,"54:46, 51:49","2.0s, 1.5s",2023-07-19_15h21.13.121,Rewa's Exp,2023.1.2,60.01453551765056,
Countdown_1.5s.mp4,green,red,left,Countdown_1.5s.jpg,11,0,11,0,0,0,0,3,0,0,0,0,,,,,1,3,7,2,,,,,,,,1346.6970198000054,1347.8463632000057,1.1493434000003617,,,,,18,51:49,1,,left,1,1.128735999998753,None,,,,,,,,,,Annie,2 - with skip,"54:46, 51:49","2.0s, 1.5s",2023-07-19_15h21.13.121,Rewa's Exp,2023.1.2,60.01453551765056,
Countdown_1.5s.mp4,red,green,right,Countdown_1.5s.jpg,11,0,11,0,0,0,0,3,0,0,0,0,,,,,,,,,,,,,,,,,,,,,,,,,,,,,,,,1354.4764367000025,1354.4764367000025,1354.4764367000025,1354.4764367000025,space,1.745464699997683,,,Annie,2 - with skip,"54:46, 51:49","2.0s, 1.5s",2023-07-19_15h21.13.121,Rewa's Exp,2023.1.2,60.01453551765056,
Countdown_2s.mp4,red,green,right,Countdown_2s.jpg,12,0,12,0,0,0,0,1,0,0,0,1,0,0,0,1,,,,,,,,,,,,1353.5740887000138,1354.929625100005,1.3555363999912515,None,0,,space,18,54:46,0,1.3298307999939425,,,,,,,,,,,,,,Annie,2 - with skip,"54:46, 51:49","2.0s, 1.5s",2023-07-19_15h21.13.121,Rewa's Exp,2023.1.2,60.01453551765056,
Countdown_1.5s.mp4,green,red,left,Countdown_1.5s.jpg,12,0,12,0,0,0,0,1,0,0,0,1,0,1,1,2,,,,,,,,,,,,1358.8953047000105,1360.1628688000055,1.2675640999950701,None,0,,space,18,54:46,0,1.2416142000001855,,,,,,,,,,,,,,Annie,2 - with skip,"54:46, 51:49","2.0s, 1.5s",2023-07-19_15h21.13.121,Rewa's Exp,2023.1.2,60.01453551765056,
Countdown_1.5s.mp4,red,green,right,Countdown_1.5s.jpg,12,0,12,0,0,0,0,1,0,0,0,1,0,2,2,0,,,,,,,,,,,,1364.0753683000075,1365.2957695000077,1.2204012000001967,None,0,,space,18,54:46,0,1.1962802999914857,,,,,,,,,,,,,,Annie,2 - with skip,"54:46, 51:49","2.0s, 1.5s",2023-07-19_15h21.13.121,Rewa's Exp,2023.1.2,60.01453551765056,
Countdown_2s.mp4,green,red,left,Countdown_2s.jpg,12,0,12,0,0,0,0,1,0,0,0,1,0,3,3,3,,,,,,,,,,,,1369.2095411000046,1370.46238360001,1.2528425000054995,left,1,1.2321354000014253,None,19,54:46,1,,,,,,,,,,,,,,,Annie,2 - with skip,"54:46, 51:49","2.0s, 1.5s",2023-07-19_15h21.13.121,Rewa's Exp,2023.1.2,60.01453551765056,
Countdown_1.5s.mp4,green,red,left,Countdown_1.5s.jpg,12,0,12,0,0,0,0,1,0,0,0,1,1,0,4,2,,,,,,,,,,,,1374.3714080000063,1375.5130784000066,1.1416704000002937,None,0,,space,19,54:46,0,1.1174832999968203,,,,,,,,,,,,,,Annie,2 - with skip,"54:46, 51:49","2.0s, 1.5s",2023-07-19_15h21.13.121,Rewa's Exp,2023.1.2,60.01453551765056,
Countdown_2s.mp4,green,red,left,Countdown_2s.jpg,12,0,12,0,0,0,0,1,0,0,0,1,1,1,5,3,,,,,,,,,,,,1379.4402333000035,1380.3128224000102,0.872589100006735,left,1,0.8405772999976762,None,20,54:46,1,,,,,,,,,,,,,,,Annie,2 - with skip,"54:46, 51:49","2.0s, 1.5s",2023-07-19_15h21.13.121,Rewa's Exp,2023.1.2,60.01453551765056,
Countdown_2s.mp4,red,green,right,Countdown_2s.jpg,12,0,12,0,0,0,0,1,0,0,0,1,1,2,6,1,,,,,,,,,,,,1384.2737307000061,1385.2959281000076,1.0221974000014598,None,0,,space,20,54:46,0,0.9900366999936523,,,,,,,,,,,,,,Annie,2 - with skip,"54:46, 51:49","2.0s, 1.5s",2023-07-19_15h21.13.121,Rewa's Exp,2023.1.2,60.01453551765056,
Countdown_1.5s.mp4,red,green,right,Countdown_1.5s.jpg,12,0,12,0,0,0,0,1,0,0,0,1,1,3,7,0,,,,,,,,,,,,1389.1902071000077,1390.1122066000098,0.9219995000021299,None,0,,space,20,54:46,0,0.8892591999901924,,,,,,,,,,,,,,Annie,2 - with skip,"54:46, 51:49","2.0s, 1.5s",2023-07-19_15h21.13.121,Rewa's Exp,2023.1.2,60.01453551765056,
Countdown_1.5s.mp4,red,green,right,Countdown_1.5s.jpg,12,0,12,0,0,0,0,1,0,0,0,1,,,,,0,0,0,0,,,,,,,,1394.0473482000089,1395.1456963000091,1.098348100000294,,,,,20,51:49,0,,None,0,,space,1.0804056000051787,,,,,,,,,Annie,2 - with skip,"54:46, 51:49","2.0s, 1.5s",2023-07-19_15h21.13.121,Rewa's Exp,2023.1.2,60.01453551765056,
Countdown_2s.mp4,red,green,right,Countdown_2s.jpg,12,0,12,0,0,0,0,1,0,0,0,1,,,,,0,1,1,1,,,,,,,,1399.0474140000006,1400.5456549000082,1.4982409000076586,,,,,20,51:49,0,,None,0,,space,1.4814844999928027,,,,,,,,,Annie,2 - with skip,"54:46, 51:49","2.0s, 1.5s",2023-07-19_15h21.13.121,Rewa's Exp,2023.1.2,60.01453551765056,
Countdown_2s.mp4,green,red,left,Countdown_2s.jpg,12,0,12,0,0,0,0,1,0,0,0,1,,,,,0,2,2,3,,,,,,,,1404.451750600012,1405.9126838000084,1.4609331999963615,,,,,20,51:49,0,,None,0,,space,1.4280273000040324,,,,,,,,,Annie,2 - with skip,"54:46, 51:49","2.0s, 1.5s",2023-07-19_15h21.13.121,Rewa's Exp,2023.1.2,60.01453551765056,
Countdown_1.5s.mp4,green,red,left,Countdown_1.5s.jpg,12,0,12,0,0,0,0,1,0,0,0,1,,,,,0,3,3,2,,,,,,,,1409.8030214000028,1410.862378100006,1.0593567000032635,,,,,21,51:49,1,,left,1,1.0372276999987662,None,,,,,,,,,,Annie,2 - with skip,"54:46, 51:49","2.0s, 1.5s",2023-07-19_15h21.13.121,Rewa's Exp,2023.1.2,60.01453551765056,
Countdown_2s.mp4,red,green,right,Countdown_2s.jpg,12,0,12,0,0,0,0,1,0,0,0,1,,,,,1,0,4,1,,,,,,,,1414.7429895000096,1415.5954700000002,0.8524804999906337,,,,,21,51:49,0,,None,0,,space,0.8330672999873059,,,,,,,,,Annie,2 - with skip,"54:46, 51:49","2.0s, 1.5s",2023-07-19_15h21.13.121,Rewa's Exp,2023.1.2,60.01453551765056,
Countdown_2s.mp4,green,red,left,Countdown_2s.jpg,12,0,12,0,0,0,0,1,0,0,0,1,,,,,1,1,5,3,,,,,,,,1419.5181056000001,1421.2457505000057,1.7276449000055436,,,,,21,51:49,0,,None,0,,space,1.6977018999896245,,,,,,,,,Annie,2 - with skip,"54:46, 51:49","2.0s, 1.5s",2023-07-19_15h21.13.121,Rewa's Exp,2023.1.2,60.01453551765056,
Countdown_1.5s.mp4,green,red,left,Countdown_1.5s.jpg,12,0,12,0,0,0,0,1,0,0,0,1,,,,,1,2,6,2,,,,,,,,1425.1561851000006,1426.2455580000096,1.0893729000090389,,,,,21,51:49,0,,None,0,,space,1.0685798000049544,,,,,,,,,Annie,2 - with skip,"54:46, 51:49","2.0s, 1.5s",2023-07-19_15h21.13.121,Rewa's Exp,2023.1.2,60.01453551765056,
Countdown_1.5s.mp4,red,green,right,Countdown_1.5s.jpg,12,0,12,0,0,0,0,1,0,0,0,1,,,,,1,3,7,0,,,,,,,,1430.1595322000067,1431.3958190000121,1.2362868000054732,,,,,21,51:49,0,,None,0,,space,1.2091032000025734,,,,,,,,,Annie,2 - with skip,"54:46, 51:49","2.0s, 1.5s",2023-07-19_15h21.13.121,Rewa's Exp,2023.1.2,60.01453551765056,
Countdown_2s.mp4,red,green,right,Countdown_2s.jpg,12,0,12,0,0,0,0,1,0,0,0,1,,,,,,,,,,,,,,,,,,,,,,,,,,,,,,,,1438.0021422999998,1438.0021422999998,1438.0021422999998,1438.0021422999998,space,1.8841351999872131,,,Annie,2 - with skip,"54:46, 51:49","2.0s, 1.5s",2023-07-19_15h21.13.121,Rewa's Exp,2023.1.2,60.01453551765056,
Countdown_1.5s.mp4,green,red,left,Countdown_1.5s.jpg,13,0,13,0,0,0,0,1,0,0,0,3,0,0,0,2,,,,,,,,,,,,1437.2339045000117,1438.6960848000017,1.4621802999899955,None,0,,space,21,54:46,0,1.430332099989755,,,,,,,,,,,,,,Annie,2 - with skip,"54:46, 51:49","2.0s, 1.5s",2023-07-19_15h21.13.121,Rewa's Exp,2023.1.2,60.01453551765056,
Countdown_2s.mp4,green,red,left,Countdown_2s.jpg,13,0,13,0,0,0,0,1,0,0,0,3,0,1,1,3,,,,,,,,,,,,1442.6110352000105,1444.2956424000004,1.6846071999898413,None,0,,space,21,54:46,0,1.6616034000035143,,,,,,,,,,,,,,Annie,2 - with skip,"54:46, 51:49","2.0s, 1.5s",2023-07-19_15h21.13.121,Rewa's Exp,2023.1.2,60.01453551765056,
Countdown_2s.mp4,red,green,right,Countdown_2s.jpg,13,0,13,0,0,0,0,1,0,0,0,3,0,2,2,1,,,,,,,,,,,,1448.2141281000077,1449.7626050000108,1.548476900003152,right,1,1.5231273999961559,None,22,54:46,1,,,,,,,,,,,,,,,Annie,2 - with skip,"54:46, 51:49","2.0s, 1.5s",2023-07-19_15h21.13.121,Rewa's Exp,2023.1.2,60.01453551765056,
Countdown_1.5s.mp4,red,green,right,Countdown_1.5s.jpg,13,0,13,0,0,0,0,1,0,0,0,3,0,3,3,0,,,,,,,,,,,,1453.6919975000055,1454.4791734000028,0.7871758999972371,None,0,,space,22,54:46,0,0.7638465000054566,,,,,,,,,,,,,,Annie,2 - with skip,"54:46, 51:49","2.0s, 1.5s",2023-07-19_15h21.13.121,Rewa's Exp,2023.1.2,60.01453551765056,
Countdown_2s.mp4,red,green,right,Countdown_2s.jpg,13,0,13,0,0,0,0,1,0,0,0,3,1,0,4,1,,,,,,,,,,,,1458.3694792000024,1460.0792082000116,1.709729000009247,None,0,,space,22,54:46,0,1.6868715999880806,,,,,,,,,,,,,,Annie,2 - with skip,"54:46, 51:49","2.0s, 1.5s",2023-07-19_15h21.13.121,Rewa's Exp,2023.1.2,60.01453551765056,
Countdown_1.5s.mp4,green,red,left,Countdown_1.5s.jpg,13,0,13,0,0,0,0,1,0,0,0,3,1,1,5,2,,,,,,,,,,,,1464.0532815000042,1465.429004000005,1.3757225000008475,left,1,1.3562910000036936,None,23,54:46,1,,,,,,,,,,,,,,,Annie,2 - with skip,"54:46, 51:49","2.0s, 1.5s",2023-07-19_15h21.13.121,Rewa's Exp,2023.1.2,60.01453551765056,
Countdown_1.5s.mp4,red,green,right,Countdown_1.5s.jpg,13,0,13,0,0,0,0,1,0,0,0,3,1,2,6,0,,,,,,,,,,,,1469.3515976000053,1470.1625763000047,0.8109786999993958,None,0,,space,23,54:46,0,0.7860152000066591,,,,,,,,,,,,,,Annie,2 - with skip,"54:46, 51:49","2.0s, 1.5s",2023-07-19_15h21.13.121,Rewa's Exp,2023.1.2,60.01453551765056,
Countdown_2s.mp4,green,red,left,Countdown_2s.jpg,13,0,13,0,0,0,0,1,0,0,0,3,1,3,7,3,,,,,,,,,,,,1474.061684500004,1475.7294613000122,1.6677768000081414,None,0,,space,23,54:46,0,1.649830899987137,,,,,,,,,,,,,,Annie,2 - with skip,"54:46, 51:49","2.0s, 1.5s",2023-07-19_15h21.13.121,Rewa's Exp,2023.1.2,60.01453551765056,
Countdown_2s.mp4,red,green,right,Countdown_2s.jpg,13,0,13,0,0,0,0,1,0,0,0,3,,,,,0,0,0,1,,,,,,,,1479.70124200001,1481.295942200013,1.5947002000029897,,,,,24,51:49,1,,right,1,1.5628553999995347,None,,,,,,,,,,Annie,2 - with skip,"54:46, 51:49","2.0s, 1.5s",2023-07-19_15h21.13.121,Rewa's Exp,2023.1.2,60.01453551765056,
Countdown_1.5s.mp4,red,green,right,Countdown_1.5s.jpg,13,0,13,0,0,0,0,1,0,0,0,3,,,,,0,1,1,0,,,,,,,,1485.2561897000123,1486.5959371000063,1.3397473999939393,,,,,24,51:49,0,,None,0,,space,1.3203091000032146,,,,,,,,,Annie,2 - with skip,"54:46, 51:49","2.0s, 1.5s",2023-07-19_15h21.13.121,Rewa's Exp,2023.1.2,60.01453551765056,
Countdown_2s.mp4,green,red,left,Countdown_2s.jpg,13,0,13,0,0,0,0,1,0,0,0,3,,,,,0,2,2,3,,,,,,,,1490.492807600007,1492.1811001000024,1.6882924999954412,,,,,24,51:49,0,,None,0,,space,1.6681841999961762,,,,,,,,,Annie,2 - with skip,"54:46, 51:49","2.0s, 1.5s",2023-07-19_15h21.13.121,Rewa's Exp,2023.1.2,60.01453551765056,
Countdown_1.5s.mp4,green,red,left,Countdown_1.5s.jpg,13,0,13,0,0,0,0,1,0,0,0,3,,,,,0,3,3,2,,,,,,,,1496.098678600014,1497.345685600012,1.2470069999981206,,,,,24,51:49,0,,None,0,,space,1.221852399990894,,,,,,,,,Annie,2 - with skip,"54:46, 51:49","2.0s, 1.5s",2023-07-19_15h21.13.121,Rewa's Exp,2023.1.2,60.01453551765056,
Countdown_1.5s.mp4,green,red,left,Countdown_1.5s.jpg,13,0,13,0,0,0,0,1,0,0,0,3,,,,,1,0,4,2,,,,,,,,1501.2574555000028,1502.078991500006,0.8215360000031069,,,,,24,51:49,0,,None,0,,space,0.7900818999914918,,,,,,,,,Annie,2 - with skip,"54:46, 51:49","2.0s, 1.5s",2023-07-19_15h21.13.121,Rewa's Exp,2023.1.2,60.01453551765056,
Countdown_2s.mp4,red,green,right,Countdown_2s.jpg,13,0,13,0,0,0,0,1,0,0,0,3,,,,,1,1,5,1,,,,,,,,1505.9852008000016,1507.5458619000128,1.5606611000112025,,,,,25,51:49,1,,right,1,1.5437748999975156,None,,,,,,,,,,Annie,2 - with skip,"54:46, 51:49","2.0s, 1.5s",2023-07-19_15h21.13.121,Rewa's Exp,2023.1.2,60.01453551765056,
Countdown_1.5s.mp4,red,green,right,Countdown_1.5s.jpg,13,0,13,0,0,0,0,1,0,0,0,3,,,,,1,2,6,0,,,,,,,,1511.4559858000139,1512.7123446000041,1.2563587999902666,,,,,25,51:49,0,,None,0,,space,1.2232610999926692,,,,,,,,,Annie,2 - with skip,"54:46, 51:49","2.0s, 1.5s",2023-07-19_15h21.13.121,Rewa's Exp,2023.1.2,60.01453551765056,
Countdown_2s.mp4,green,red,left,Countdown_2s.jpg,13,0,13,0,0,0,0,1,0,0,0,3,,,,,1,3,7,3,,,,,,,,1516.6264934000064,1518.2624025000114,1.6359091000049375,,,,,25,51:49,0,,None,0,,space,1.6137707000016235,,,,,,,,,Annie,2 - with skip,"54:46, 51:49","2.0s, 1.5s",2023-07-19_15h21.13.121,Rewa's Exp,2023.1.2,60.01453551765056,
Countdown_2s.mp4,green,red,left,Countdown_2s.jpg,13,0,13,0,0,0,0,1,0,0,0,3,,,,,,,,,,,,,,,,,,,,,,,,,,,,,,,,1524.8843811999977,1524.8843811999977,1524.8843811999977,1524.8843811999977,space,2.3210020999977132,,,Annie,2 - with skip,"54:46, 51:49","2.0s, 1.5s",2023-07-19_15h21.13.121,Rewa's Exp,2023.1.2,60.01453551765056,
Countdown_2s.mp4,red,green,right,Countdown_2s.jpg,14,0,14,0,0,0,0,1,0,0,0,3,0,0,0,1,,,,,,,,,,,,1524.5511270000134,1525.9455936000013,1.3944665999879362,None,0,,space,25,54:46,0,1.3698470999952406,,,,,,,,,,,,,,Annie,2 - with skip,"54:46, 51:49","2.0s, 1.5s",2023-07-19_15h21.13.121,Rewa's Exp,2023.1.2,60.01453551765056,
Countdown_1.5s.mp4,green,red,left,Countdown_1.5s.jpg,14,0,14,0,0,0,0,1,0,0,0,3,0,1,1,2,,,,,,,,,,,,1529.8899696000008,1531.145559800003,1.2555902000021888,None,0,,space,25,54:46,0,1.2383767999854172,,,,,,,,,,,,,,Annie,2 - with skip,"54:46, 51:49","2.0s, 1.5s",2023-07-19_15h21.13.121,Rewa's Exp,2023.1.2,60.01453551765056,
Countdown_1.5s.mp4,red,green,right,Countdown_1.5s.jpg,14,0,14,0,0,0,0,1,0,0,0,3,0,2,2,0,,,,,,,,,,,,1535.0426918000012,1536.395492800002,1.352801000000909,None,0,,space,25,54:46,0,1.3251849000080256,,,,,,,,,,,,,,Annie,2 - with skip,"54:46, 51:49","2.0s, 1.5s",2023-07-19_15h21.13.121,Rewa's Exp,2023.1.2,60.01453551765056,
Countdown_2s.mp4,green,red,left,Countdown_2s.jpg,14,0,14,0,0,0,0,1,0,0,0,3,0,3,3,3,,,,,,,,,,,,1540.3161076000106,1541.7958408000122,1.4797332000016468,left,1,1.4528567000088515,None,26,54:46,1,,,,,,,,,,,,,,,Annie,2 - with skip,"54:46, 51:49","2.0s, 1.5s",2023-07-19_15h21.13.121,Rewa's Exp,2023.1.2,60.01453551765056,
Countdown_2s.mp4,red,green,right,Countdown_2s.jpg,14,0,14,0,0,0,0,1,0,0,0,3,1,0,4,1,,,,,,,,,,,,1545.7092110000085,1546.7622337000066,1.0530226999981096,None,0,,space,26,54:46,0,1.0272310000000289,,,,,,,,,,,,,,Annie,2 - with skip,"54:46, 51:49","2.0s, 1.5s",2023-07-19_15h21.13.121,Rewa's Exp,2023.1.2,60.01453551765056,
Countdown_1.5s.mp4,red,green,right,Countdown_1.5s.jpg,14,0,14,0,0,0,0,1,0,0,0,3,1,1,5,0,,,,,,,,,,,,1550.7148525000084,1551.7789580000099,1.0641055000014603,right,1,1.0382594999973662,None,27,54:46,1,,,,,,,,,,,,,,,Annie,2 - with skip,"54:46, 51:49","2.0s, 1.5s",2023-07-19_15h21.13.121,Rewa's Exp,2023.1.2,60.01453551765056,
Countdown_2s.mp4,green,red,left,Countdown_2s.jpg,14,0,14,0,0,0,0,1,0,0,0,3,1,2,6,3,,,,,,,,,,,,1555.7127228000027,1556.56244590001,0.8497231000073953,left,1,0.8246110999898519,None,28,54:46,1,,,,,,,,,,,,,,,Annie,2 - with skip,"54:46, 51:49","2.0s, 1.5s",2023-07-19_15h21.13.121,Rewa's Exp,2023.1.2,60.01453551765056,
Countdown_1.5s.mp4,green,red,left,Countdown_1.5s.jpg,14,0,14,0,0,0,0,1,0,0,0,3,1,3,7,2,,,,,,,,,,,,1560.509356200011,1561.5622669000004,1.0529106999892974,right,0,1.0271055000048364,None,26,54:46,-2,,,,,,,,,,,,,,,Annie,2 - with skip,"54:46, 51:49","2.0s, 1.5s",2023-07-19_15h21.13.121,Rewa's Exp,2023.1.2,60.01453551765056,
Countdown_2s.mp4,red,green,right,Countdown_2s.jpg,14,0,14,0,0,0,0,1,0,0,0,3,,,,,0,0,0,1,,,,,,,,1565.4876000000077,1566.7292118000041,1.2416117999964627,,,,,27,51:49,1,,right,1,1.224394700009725,None,,,,,,,,,,Annie,2 - with skip,"54:46, 51:49","2.0s, 1.5s",2023-07-19_15h21.13.121,Rewa's Exp,2023.1.2,60.01453551765056,
Countdown_1.5s.mp4,red,green,right,Countdown_1.5s.jpg,14,0,14,0,0,0,0,1,0,0,0,3,,,,,0,1,1,0,,,,,,,,1570.6527469000139,1572.1125488000107,1.459801899996819,,,,,28,51:49,1,,right,1,1.435112899998785,None,,,,,,,,,,Annie,2 - with skip,"54:46, 51:49","2.0s, 1.5s",2023-07-19_15h21.13.121,Rewa's Exp,2023.1.2,60.01453551765056,
Countdown_2s.mp4,green,red,left,Countdown_2s.jpg,14,0,14,0,0,0,0,1,0,0,0,3,,,,,0,2,2,3,,,,,,,,1575.9911109000095,1576.7460130000109,0.7549021000013454,,,,,28,51:49,0,,None,0,,space,0.7213577999937115,,,,,,,,,Annie,2 - with skip,"54:46, 51:49","2.0s, 1.5s",2023-07-19_15h21.13.121,Rewa's Exp,2023.1.2,60.01453551765056,
Countdown_1.5s.mp4,green,red,left,Countdown_1.5s.jpg,14,0,14,0,0,0,0,1,0,0,0,3,,,,,0,3,3,2,,,,,,,,1580.7117069000087,1581.478786000007,0.7670790999982273,,,,,28,51:49,0,,None,0,,space,0.744191600009799,,,,,,,,,Annie,2 - with skip,"54:46, 51:49","2.0s, 1.5s",2023-07-19_15h21.13.121,Rewa's Exp,2023.1.2,60.01453551765056,
Countdown_1.5s.mp4,red,green,right,Countdown_1.5s.jpg,14,0,14,0,0,0,0,1,0,0,0,3,,,,,1,0,4,0,,,,,,,,1585.3958336000069,1586.4620847000042,1.0662510999973165,,,,,28,51:49,0,,None,0,,space,1.0362337999977171,,,,,,,,,Annie,2 - with skip,"54:46, 51:49","2.0s, 1.5s",2023-07-19_15h21.13.121,Rewa's Exp,2023.1.2,60.01453551765056,
Countdown_2s.mp4,green,red,left,Countdown_2s.jpg,14,0,14,0,0,0,0,1,0,0,0,3,,,,,1,1,5,3,,,,,,,,1590.4084699000086,1591.7457088000083,1.3372388999996474,,,,,29,51:49,1,,left,1,1.3137812000059057,None,,,,,,,,,,Annie,2 - with skip,"54:46, 51:49","2.0s, 1.5s",2023-07-19_15h21.13.121,Rewa's Exp,2023.1.2,60.01453551765056,
Countdown_2s.mp4,red,green,right,Countdown_2s.jpg,14,0,14,0,0,0,0,1,0,0,0,3,,,,,1,2,6,1,,,,,,,,1595.6691430000064,1597.0626997000072,1.3935567000007723,,,,,29,51:49,0,,None,0,,space,1.3628667000011774,,,,,,,,,Annie,2 - with skip,"54:46, 51:49","2.0s, 1.5s",2023-07-19_15h21.13.121,Rewa's Exp,2023.1.2,60.01453551765056,
Countdown_1.5s.mp4,green,red,left,Countdown_1.5s.jpg,14,0,14,0,0,0,0,1,0,0,0,3,,,,,1,3,7,2,,,,,,,,1601.025942600012,1602.2959198000026,1.2699771999905352,,,,,29,51:49,0,,None,0,,space,1.2373304000066128,,,,,,,,,Annie,2 - with skip,"54:46, 51:49","2.0s, 1.5s",2023-07-19_15h21.13.121,Rewa's Exp,2023.1.2,60.01453551765056,
Countdown_2s.mp4,green,red,left,Countdown_2s.jpg,14,0,14,0,0,0,0,1,0,0,0,3,,,,,,,,,,,,,,,,,,,,,,,,,,,,,,,,1608.920723999996,1608.920723999996,1608.920723999996,1608.920723999996,space,1.9721027000050526,,,Annie,2 - with skip,"54:46, 51:49","2.0s, 1.5s",2023-07-19_15h21.13.121,Rewa's Exp,2023.1.2,60.01453551765056,
,,,,,,,,,,,,,,,,,,,,,,,,,,,,,,,,,,,,,,,,,,,,,,,,,,,,,,1610.9177083999966,1615.9174625000014,,,,,,,,,
