Countdown,color1,color2,correct,screenshot,trials.thisRepN,trials.thisTrialN,trials.thisN,trials.thisIndex,trials_6040.thisRepN,trials_6040.thisTrialN,trials_6040.thisN,trials_6040.thisIndex,trials_5743.thisRepN,trials_5743.thisTrialN,trials_5743.thisN,trials_5743.thisIndex,trials_5446.thisRepN,trials_5446.thisTrialN,trials_5446.thisN,trials_5446.thisIndex,trials_5149.thisRepN,trials_5149.thisTrialN,trials_5149.thisN,trials_5149.thisIndex,key_resp_4.started,key_resp_4.keys,key_resp_4.rt,key_resp_2.started,key_resp_2.keys,key_resp_2.rt,key_resp_3.keys,Videoshowstart,Videoshowstop,VideoshowRT,response.keys,response.corr,key_skip.keys,total_score,Dot_ratio,current_score,response.rt,Left_3.started,response_2.keys,response_2.corr,response_2.rt,key_skip_2.keys,text_2.started,text_5.started,key_resp.started,text_9.started,key_resp.keys,key_resp.rt,participant,Task,Dot Ratio,Deadline,date,expName,psychopyVersion,frameRate,
,,,,,,,,,,,,,,,,,,,,,,,,,20.349079199993866,space,2.1579866999963997,,,,,,,,,,,,,,,,,,,,,,,,,,Antoine2,1 - without skip,"60:40, 57:43","1.5s, 1.0s",2023-07-19_18h00.23.445,Rewa's Exp,2023.1.2,60.07156926886537,
,,,,,,,,,,,,,,,,,,,,,,,,,,,,22.525046199996723,space,0.4373963999969419,,,,,,,,,,,,,,,,,,,,,,,Antoine2,1 - without skip,"60:40, 57:43","1.5s, 1.0s",2023-07-19_18h00.23.445,Rewa's Exp,2023.1.2,60.07156926886537,
,,,,,,,,,,,,,,,,,,,,,,,,,,,,,,,None,,,,,,,,,,,,,,,,,,,,,,Antoine2,1 - without skip,"60:40, 57:43","1.5s, 1.0s",2023-07-19_18h00.23.445,Rewa's Exp,2023.1.2,60.07156926886537,
Countdown_1s.mp4,red,green,right,Countdown_1s.jpg,0,0,0,0,0,0,0,1,,,,,,,,,,,,,,,,,,,,19.90811780000513,20.859534800008987,0.9514170000038575,None,0,None,-2,60:40,-2,,,,,,,,,,,,,Antoine2,1 - without skip,"60:40, 57:43","1.5s, 1.0s",2023-07-19_18h00.23.445,Rewa's Exp,2023.1.2,60.07156926886537,
Countdown_1.5s.mp4,red,green,right,Countdown_1.5s.jpg,0,0,0,0,0,1,1,0,,,,,,,,,,,,,,,,,,,,24.786867900009383,26.259275100004743,1.4724071999953594,None,0,None,-4,60:40,-2,,,,,,,,,,,,,Antoine2,1 - without skip,"60:40, 57:43","1.5s, 1.0s",2023-07-19_18h00.23.445,Rewa's Exp,2023.1.2,60.07156926886537,
Countdown_1s.mp4,green,red,left,Countdown_1s.jpg,0,0,0,0,0,2,2,3,,,,,,,,,,,,,,,,,,,,30.183602100005373,31.16023470000073,0.9766325999953551,None,0,None,-6,60:40,-2,,,,,,,,,,,,,Antoine2,1 - without skip,"60:40, 57:43","1.5s, 1.0s",2023-07-19_18h00.23.445,Rewa's Exp,2023.1.2,60.07156926886537,
Countdown_1.5s.mp4,green,red,left,Countdown_1.5s.jpg,0,0,0,0,0,3,3,2,,,,,,,,,,,,,,,,,,,,35.08027659999789,36.57594809999864,1.4956715000007534,None,0,None,-8,60:40,-2,,,,,,,,,,,,,Antoine2,1 - without skip,"60:40, 57:43","1.5s, 1.0s",2023-07-19_18h00.23.445,Rewa's Exp,2023.1.2,60.07156926886537,
Countdown_1.5s.mp4,red,green,right,Countdown_1.5s.jpg,0,0,0,0,1,0,4,0,,,,,,,,,,,,,,,,,,,,40.50034169999708,41.97588870000618,1.4755470000091009,None,0,None,-10,60:40,-2,,,,,,,,,,,,,Antoine2,1 - without skip,"60:40, 57:43","1.5s, 1.0s",2023-07-19_18h00.23.445,Rewa's Exp,2023.1.2,60.07156926886537,
Countdown_1.5s.mp4,green,red,left,Countdown_1.5s.jpg,0,0,0,0,1,1,5,2,,,,,,,,,,,,,,,,,,,,45.895098699998925,47.39266759999737,1.4975688999984413,None,0,None,-12,60:40,-2,,,,,,,,,,,,,Antoine2,1 - without skip,"60:40, 57:43","1.5s, 1.0s",2023-07-19_18h00.23.445,Rewa's Exp,2023.1.2,60.07156926886537,
Countdown_1s.mp4,green,red,left,Countdown_1s.jpg,0,0,0,0,1,2,6,3,,,,,,,,,,,,,,,,,,,,51.30332370000542,52.275925499998266,0.9726017999928445,None,0,None,-14,60:40,-2,,,,,,,,,,,,,Antoine2,1 - without skip,"60:40, 57:43","1.5s, 1.0s",2023-07-19_18h00.23.445,Rewa's Exp,2023.1.2,60.07156926886537,
Countdown_1s.mp4,red,green,right,Countdown_1s.jpg,0,0,0,0,1,3,7,1,,,,,,,,,,,,,,,,,,,,56.21988400000555,56.92607529999805,0.7061912999924971,right,1,None,-13,60:40,1,0.6863225999986753,,,,,,,,,,,,Antoine2,1 - without skip,"60:40, 57:43","1.5s, 1.0s",2023-07-19_18h00.23.445,Rewa's Exp,2023.1.2,60.07156926886537,
Countdown_1.5s.mp4,green,red,left,Countdown_1.5s.jpg,0,0,0,0,,,,,0,0,0,2,,,,,,,,,,,,,,,,60.65559199999552,61.35952379999799,0.703931800002465,,,,-15,57:43,-2,,66.3765213000006,right,0,0.6812546000001021,None,,,,,,,Antoine2,1 - without skip,"60:40, 57:43","1.5s, 1.0s",2023-07-19_18h00.23.445,Rewa's Exp,2023.1.2,60.07156926886537,
Countdown_1s.mp4,red,green,right,Countdown_1s.jpg,0,0,0,0,,,,,0,1,1,1,,,,,,,,,,,,,,,,65.27654489999986,65.8759432000079,0.5993983000080334,,,,-17,57:43,-2,,70.9975001999992,left,0,0.5729258999926969,None,,,,,,,Antoine2,1 - without skip,"60:40, 57:43","1.5s, 1.0s",2023-07-19_18h00.23.445,Rewa's Exp,2023.1.2,60.07156926886537,
Countdown_1.5s.mp4,red,green,right,Countdown_1.5s.jpg,0,0,0,0,,,,,0,2,2,0,,,,,,,,,,,,,,,,69.80468230000406,69.9599259000097,0.1552436000056332,,,,-16,57:43,1,,75.52563829999417,right,1,0.12401840000529774,None,,,,,,,Antoine2,1 - without skip,"60:40, 57:43","1.5s, 1.0s",2023-07-19_18h00.23.445,Rewa's Exp,2023.1.2,60.07156926886537,
Countdown_1s.mp4,green,red,left,Countdown_1s.jpg,0,0,0,0,,,,,0,3,3,3,,,,,,,,,,,,,,,,73.921311099999,74.70985729999666,0.7885461999976542,,,,-15,57:43,1,,79.64225180000358,left,1,0.7686686999950325,None,,,,,,,Antoine2,1 - without skip,"60:40, 57:43","1.5s, 1.0s",2023-07-19_18h00.23.445,Rewa's Exp,2023.1.2,60.07156926886537,
Countdown_1.5s.mp4,green,red,left,Countdown_1.5s.jpg,0,0,0,0,,,,,1,0,4,2,,,,,,,,,,,,,,,,78.65185120000388,79.65931889999774,1.0074676999938674,,,,-14,57:43,1,,84.37270969999372,left,1,0.9812903999991249,None,,,,,,,Antoine2,1 - without skip,"60:40, 57:43","1.5s, 1.0s",2023-07-19_18h00.23.445,Rewa's Exp,2023.1.2,60.07156926886537,
Countdown_1s.mp4,green,red,left,Countdown_1s.jpg,0,0,0,0,,,,,1,1,5,3,,,,,,,,,,,,,,,,83.62601930000528,84.27602900000056,0.6500096999952802,,,,-16,57:43,-2,,89.3468797999958,right,0,0.623788600001717,None,,,,,,,Antoine2,1 - without skip,"60:40, 57:43","1.5s, 1.0s",2023-07-19_18h00.23.445,Rewa's Exp,2023.1.2,60.07156926886537,
Countdown_1.5s.mp4,red,green,right,Countdown_1.5s.jpg,0,0,0,0,,,,,1,2,6,0,,,,,,,,,,,,,,,,88.2349247999955,88.65916280000238,0.4242380000068806,,,,-18,57:43,-2,,93.95588519999,left,0,0.4064537999947788,None,,,,,,,Antoine2,1 - without skip,"60:40, 57:43","1.5s, 1.0s",2023-07-19_18h00.23.445,Rewa's Exp,2023.1.2,60.07156926886537,
Countdown_1s.mp4,red,green,right,Countdown_1s.jpg,0,0,0,0,,,,,1,3,7,1,,,,,,,,,,,,,,,,92.60224890000245,93.49283440000727,0.8905855000048177,,,,-20,57:43,-2,,98.32316369999899,left,0,0.8718047000002116,None,,,,,,,Antoine2,1 - without skip,"60:40, 57:43","1.5s, 1.0s",2023-07-19_18h00.23.445,Rewa's Exp,2023.1.2,60.07156926886537,
Countdown_1.5s.mp4,green,red,left,Countdown_1.5s.jpg,0,0,0,0,,,,,,,,,0,0,0,1,0,0,0,2,,,,,,,,,,,,,,,,,,,,,,,100.3611333000008,100.3611333000008,100.3611333000008,100.3611333000008,space,2.5683794999931706,Antoine2,1 - without skip,"60:40, 57:43","1.5s, 1.0s",2023-07-19_18h00.23.445,Rewa's Exp,2023.1.2,60.07156926886537,
Countdown_1.5s.mp4,green,red,left,Countdown_1.5s.jpg,1,0,1,0,0,0,0,2,,,,,0,0,0,1,0,0,0,2,,,,,,,,100.02249350000056,100.85946900000272,0.8369755000021541,left,1,None,-19,60:40,1,0.8188706999935675,,,,,,,,,,,,Antoine2,1 - without skip,"60:40, 57:43","1.5s, 1.0s",2023-07-19_18h00.23.445,Rewa's Exp,2023.1.2,60.07156926886537,
