Duration,Countdown,color1,color2,correct,screenshot,trials.thisRepN,trials.thisTrialN,trials.thisN,trials.thisIndex,trials_6040.thisRepN,trials_6040.thisTrialN,trials_6040.thisN,trials_6040.thisIndex,trials_5743.thisRepN,trials_5743.thisTrialN,trials_5743.thisN,trials_5743.thisIndex,trials_5446.thisRepN,trials_5446.thisTrialN,trials_5446.thisN,trials_5446.thisIndex,trials_5149.thisRepN,trials_5149.thisTrialN,trials_5149.thisN,trials_5149.thisIndex,key_resp_2.started,key_resp_2.keys,key_resp_2.rt,Videoshowstart,Videoshowstop,VideoshowRT,response.keys,response.corr,response.rt,key_skip.keys,total_score,Dot_ratio,current_score,Left_3.started,response_2.keys,response_2.corr,response_2.rt,key_skip_2.keys,text_2.started,text_5.started,key_resp.started,text_9.started,key_resp.keys,key_resp.rt,text_10.started,participant,Task,Dot Ratio,Deadline,date,expName,psychopyVersion,frameRate,
,,,,,,,,,,,,,,,,,,,,,,,,,,12.508319500018843,space,0.8931654999614693,,,,,,,,,,,,,,,,,,,,,,,fff,1 - without skip,"60:40, 57:43","2.5s, 2.0s",2023-07-16_16h08.27.210,Rewa's Exp,2023.1.2,59.97674101728344,
2.5,Countdown_2.5s.mp4,red,green,right,Countdown_2.5s.jpg,0,0,0,0,0,0,0,0,,,,,,,,,,,,,,,,10.740345300000627,11.015198200009763,0.27485290000913665,right,1,0.24534299998776987,None,1,60:40,1,,,,,,,,,,,,,fff,1 - without skip,"60:40, 57:43","2.5s, 2.0s",2023-07-16_16h08.27.210,Rewa's Exp,2023.1.2,59.97674101728344,
2,Countdown_2s.mp4,green,red,left,Countdown_2s.jpg,0,0,0,0,0,1,1,3,,,,,,,,,,,,,,,,14.931958400004078,15.231831400014926,0.29987300001084805,left,1,0.2690039000008255,None,2,60:40,1,,,,,,,,,,,,,fff,1 - without skip,"60:40, 57:43","2.5s, 2.0s",2023-07-16_16h08.27.210,Rewa's Exp,2023.1.2,59.97674101728344,
2.5,Countdown_2.5s.mp4,green,red,left,Countdown_2.5s.jpg,0,0,0,0,0,2,2,2,,,,,,,,,,,,,,,,19.13448690000223,19.448752299998887,0.3142653999966569,right,0,0.28432120004436,None,0,60:40,-2,,,,,,,,,,,,,fff,1 - without skip,"60:40, 57:43","2.5s, 2.0s",2023-07-16_16h08.27.210,Rewa's Exp,2023.1.2,59.97674101728344,
2,Countdown_2s.mp4,red,green,right,Countdown_2s.jpg,0,0,0,0,0,3,3,1,,,,,,,,,,,,,,,,23.379558900021948,23.798727000015788,0.41916809999383986,left,0,0.38952400005655363,None,-2,60:40,-2,,,,,,,,,,,,,fff,1 - without skip,"60:40, 57:43","2.5s, 2.0s",2023-07-16_16h08.27.210,Rewa's Exp,2023.1.2,59.97674101728344,
2,Countdown_2s.mp4,green,red,left,Countdown_2s.jpg,0,0,0,0,1,0,4,3,,,,,,,,,,,,,,,,27.70568650000496,27.965432600001805,0.25974609999684617,right,0,0.23209550004685298,None,-4,60:40,-2,,,,,,,,,,,,,fff,1 - without skip,"60:40, 57:43","2.5s, 2.0s",2023-07-16_16h08.27.210,Rewa's Exp,2023.1.2,59.97674101728344,
2.5,Countdown_2.5s.mp4,green,red,left,Countdown_2.5s.jpg,0,0,0,0,1,1,5,2,,,,,,,,,,,,,,,,31.850039699987974,32.28238910000073,0.4323494000127539,right,0,0.4094877999741584,None,-6,60:40,-2,,,,,,,,,,,,,fff,1 - without skip,"60:40, 57:43","2.5s, 2.0s",2023-07-16_16h08.27.210,Rewa's Exp,2023.1.2,59.97674101728344,
2.5,Countdown_2.5s.mp4,red,green,right,Countdown_2.5s.jpg,0,0,0,0,1,2,6,0,,,,,,,,,,,,,,,,36.257686999975704,36.965591299987864,0.7079043000121601,left,0,0.6795682999654673,None,-8,60:40,-2,,,,,,,,,,,,,fff,1 - without skip,"60:40, 57:43","2.5s, 2.0s",2023-07-16_16h08.27.210,Rewa's Exp,2023.1.2,59.97674101728344,
2,Countdown_2s.mp4,red,green,right,Countdown_2s.jpg,0,0,0,0,1,3,7,1,,,,,,,,,,,,,,,,40.904298099980224,41.148569600016344,0.24427150003612041,left,0,0.22569769999245182,None,-10,60:40,-2,,,,,,,,,,,,,fff,1 - without skip,"60:40, 57:43","2.5s, 2.0s",2023-07-16_16h08.27.210,Rewa's Exp,2023.1.2,59.97674101728344,
2.5,Countdown_2.5s.mp4,green,red,left,Countdown_2.5s.jpg,0,0,0,0,,,,,0,0,0,2,,,,,,,,,,,,44.89946809998946,45.48224590002792,0.5827778000384569,,,,,-12,57:43,-2,50.21869589999551,right,0,0.5662518000463024,None,,,,,,,,fff,1 - without skip,"60:40, 57:43","2.5s, 2.0s",2023-07-16_16h08.27.210,Rewa's Exp,2023.1.2,59.97674101728344,
2.5,Countdown_2.5s.mp4,red,green,right,Countdown_2.5s.jpg,0,0,0,0,,,,,0,1,1,0,,,,,,,,,,,,49.38656489999266,50.182255599997006,0.7956907000043429,,,,,-11,57:43,1,54.70603599998867,right,1,0.7757889999775216,None,,,,,,,,fff,1 - without skip,"60:40, 57:43","2.5s, 2.0s",2023-07-16_16h08.27.210,Rewa's Exp,2023.1.2,59.97674101728344,
2,Countdown_2s.mp4,red,green,right,Countdown_2s.jpg,0,0,0,0,,,,,0,2,2,1,,,,,,,,,,,,54.16004579997389,54.632444599992596,0.47239880001870915,,,,,-10,57:43,1,59.47956120001618,right,1,0.4494630999979563,None,,,,,,,,fff,1 - without skip,"60:40, 57:43","2.5s, 2.0s",2023-07-16_16h08.27.210,Rewa's Exp,2023.1.2,59.97674101728344,
2,Countdown_2s.mp4,green,red,left,Countdown_2s.jpg,0,0,0,0,,,,,0,3,3,3,,,,,,,,,,,,58.569089800002985,59.53201490000356,0.9629251000005752,,,,,-9,57:43,1,63.888619799981825,left,1,0.9457782999961637,None,,,,,,,,fff,1 - without skip,"60:40, 57:43","2.5s, 2.0s",2023-07-16_16h08.27.210,Rewa's Exp,2023.1.2,59.97674101728344,
2.5,Countdown_2.5s.mp4,green,red,left,Countdown_2.5s.jpg,0,0,0,0,,,,,1,0,4,2,,,,,,,,,,,,63.461738499987405,63.94886519998545,0.4871266999980435,,,,,-11,57:43,-2,68.78121350001311,right,0,0.4606375999865122,None,,,,,,,,fff,1 - without skip,"60:40, 57:43","2.5s, 2.0s",2023-07-16_16h08.27.210,Rewa's Exp,2023.1.2,59.97674101728344,
2,Countdown_2s.mp4,red,green,right,Countdown_2s.jpg,0,0,0,0,,,,,1,1,5,1,,,,,,,,,,,,67.87802060000831,68.16540589998476,0.28738529997644946,,,,,-13,57:43,-2,73.19758769997861,left,0,0.2607410000055097,None,,,,,,,,fff,1 - without skip,"60:40, 57:43","2.5s, 2.0s",2023-07-16_16h08.27.210,Rewa's Exp,2023.1.2,59.97674101728344,
2.5,Countdown_2.5s.mp4,red,green,right,Countdown_2.5s.jpg,0,0,0,0,,,,,1,2,6,0,,,,,,,,,,,,72.0735184000223,72.94892579998123,0.8754073999589309,,,,,-15,57:43,-2,77.39296420000028,left,0,0.8564352000248618,None,,,,,,,,fff,1 - without skip,"60:40, 57:43","2.5s, 2.0s",2023-07-16_16h08.27.210,Rewa's Exp,2023.1.2,59.97674101728344,
2,Countdown_2s.mp4,green,red,left,Countdown_2s.jpg,0,0,0,0,,,,,1,3,7,3,,,,,,,,,,,,76.92357189999893,78.81528919999255,1.8917172999936156,,,,,-17,57:43,-2,82.2430642999825,right,0,1.8623846999835223,None,,,,,,,,fff,1 - without skip,"60:40, 57:43","2.5s, 2.0s",2023-07-16_16h08.27.210,Rewa's Exp,2023.1.2,59.97674101728344,
2.5,Countdown_2.5s.mp4,green,red,left,Countdown_2.5s.jpg,0,0,0,0,,,,,,,,,0,0,0,0,0,0,0,2,,,,,,,,,,,,,,,,,,,85.27346070000203,85.27346070000203,85.27346070000203,85.27346070000203,space,6.304688800009899,,fff,1 - without skip,"60:40, 57:43","2.5s, 2.0s",2023-07-16_16h08.27.210,Rewa's Exp,2023.1.2,59.97674101728344,
2.5,Countdown_2.5s.mp4,green,red,left,Countdown_2.5s.jpg,1,0,1,0,0,0,0,2,,,,,0,0,0,0,0,0,0,2,,,,89.06583129998762,90.58195139997406,1.5161200999864377,right,0,1.49619790003635,None,-19,60:40,-2,,,,,,,,,,,,,fff,1 - without skip,"60:40, 57:43","2.5s, 2.0s",2023-07-16_16h08.27.210,Rewa's Exp,2023.1.2,59.97674101728344,
2.5,Countdown_2.5s.mp4,red,green,right,Countdown_2.5s.jpg,1,0,1,0,0,1,1,0,,,,,0,0,0,0,0,0,0,2,,,,94.55175009998493,95.8820053000236,1.330255200038664,right,1,1.2979249999625608,None,-18,60:40,1,,,,,,,,,,,,,fff,1 - without skip,"60:40, 57:43","2.5s, 2.0s",2023-07-16_16h08.27.210,Rewa's Exp,2023.1.2,59.97674101728344,
2,Countdown_2s.mp4,green,red,left,Countdown_2s.jpg,1,0,1,0,0,2,2,3,,,,,0,0,0,0,0,0,0,2,,,,99.83871819998603,100.21555079997052,0.37683259998448193,right,0,0.35542410000925884,None,-20,60:40,-2,,,,,,,,,,,,,fff,1 - without skip,"60:40, 57:43","2.5s, 2.0s",2023-07-16_16h08.27.210,Rewa's Exp,2023.1.2,59.97674101728344,
2,Countdown_2s.mp4,red,green,right,Countdown_2s.jpg,1,0,1,0,0,3,3,1,,,,,0,0,0,0,0,0,0,2,,,,104.1254167999723,105.16544930002419,1.0400325000518933,right,1,1.020646100048907,None,-19,60:40,1,,,,,,,,,,,,,fff,1 - without skip,"60:40, 57:43","2.5s, 2.0s",2023-07-16_16h08.27.210,Rewa's Exp,2023.1.2,59.97674101728344,
2.5,Countdown_2.5s.mp4,red,green,right,Countdown_2.5s.jpg,1,0,1,0,1,0,4,0,,,,,0,0,0,0,0,0,0,2,,,,109.0941505000228,109.61539440002525,0.521243900002446,right,1,0.4998794000130147,None,-18,60:40,1,,,,,,,,,,,,,fff,1 - without skip,"60:40, 57:43","2.5s, 2.0s",2023-07-16_16h08.27.210,Rewa's Exp,2023.1.2,59.97674101728344,
2,Countdown_2s.mp4,red,green,right,Countdown_2s.jpg,1,0,1,0,1,1,5,1,,,,,0,0,0,0,0,0,0,2,,,,113.5347547000274,113.84900819999166,0.3142534999642521,right,1,0.29057479999028146,None,-17,60:40,1,,,,,,,,,,,,,fff,1 - without skip,"60:40, 57:43","2.5s, 2.0s",2023-07-16_16h08.27.210,Rewa's Exp,2023.1.2,59.97674101728344,
2,Countdown_2s.mp4,green,red,left,Countdown_2s.jpg,1,0,1,0,1,2,6,3,,,,,0,0,0,0,0,0,0,2,,,,117.81744559999788,118.19875889999093,0.3813132999930531,right,0,0.3520452000084333,None,-19,60:40,-2,,,,,,,,,,,,,fff,1 - without skip,"60:40, 57:43","2.5s, 2.0s",2023-07-16_16h08.27.210,Rewa's Exp,2023.1.2,59.97674101728344,
2.5,Countdown_2.5s.mp4,green,red,left,Countdown_2.5s.jpg,1,0,1,0,1,3,7,2,,,,,0,0,0,0,0,0,0,2,,,,122.09433079999872,122.76626180001767,0.671931000018958,right,0,0.6437118999892846,None,-21,60:40,-2,,,,,,,,,,,,,fff,1 - without skip,"60:40, 57:43","2.5s, 2.0s",2023-07-16_16h08.27.210,Rewa's Exp,2023.1.2,59.97674101728344,
2.5,Countdown_2.5s.mp4,red,green,right,Countdown_2.5s.jpg,1,0,1,0,,,,,0,0,0,0,0,0,0,0,0,0,0,2,,,,126.71801770001184,126.99868989997776,0.2806721999659203,,,,,-20,57:43,1,132.03755870001623,right,1,0.26044680003542453,None,,,,,,,,fff,1 - without skip,"60:40, 57:43","2.5s, 2.0s",2023-07-16_16h08.27.210,Rewa's Exp,2023.1.2,59.97674101728344,
2,Countdown_2s.mp4,red,green,right,Countdown_2s.jpg,1,0,1,0,,,,,0,1,1,1,0,0,0,0,0,0,0,2,,,,130.92110570002114,131.19876360002672,0.277657900005579,,,,,-19,57:43,1,136.24059830000624,right,1,0.2575010000145994,None,,,,,,,,fff,1 - without skip,"60:40, 57:43","2.5s, 2.0s",2023-07-16_16h08.27.210,Rewa's Exp,2023.1.2,59.97674101728344,
2,Countdown_2s.mp4,green,red,left,Countdown_2s.jpg,1,0,1,0,,,,,0,2,2,3,0,0,0,0,0,0,0,2,,,,135.12206949997926,135.39900690002833,0.2769374000490643,,,,,-21,57:43,-2,140.44154979998711,right,0,0.24790670000948012,None,,,,,,,,fff,1 - without skip,"60:40, 57:43","2.5s, 2.0s",2023-07-16_16h08.27.210,Rewa's Exp,2023.1.2,59.97674101728344,
2.5,Countdown_2.5s.mp4,green,red,left,Countdown_2.5s.jpg,1,0,1,0,,,,,0,3,3,2,0,0,0,0,0,0,0,2,,,,139.31920650001848,139.58214700000826,0.26294049998978153,,,,,-23,57:43,-2,144.63874969998142,right,0,0.2341813999810256,None,,,,,,,,fff,1 - without skip,"60:40, 57:43","2.5s, 2.0s",2023-07-16_16h08.27.210,Rewa's Exp,2023.1.2,59.97674101728344,
2.5,Countdown_2.5s.mp4,red,green,right,Countdown_2.5s.jpg,1,0,1,0,,,,,1,0,4,0,0,0,0,0,0,0,0,2,,,,143.48084089998156,143.78226050001103,0.301419600029476,,,,,-25,57:43,-2,148.8003150000004,left,0,0.2744735000305809,None,,,,,,,,fff,1 - without skip,"60:40, 57:43","2.5s, 2.0s",2023-07-16_16h08.27.210,Rewa's Exp,2023.1.2,59.97674101728344,
2.5,Countdown_2.5s.mp4,green,red,left,Countdown_2.5s.jpg,1,0,1,0,,,,,1,1,5,2,0,0,0,0,0,0,0,2,,,,147.67421720002312,148.41546280001057,0.741245599987451,,,,,-24,57:43,1,152.99363889999222,left,1,0.7116631000535563,None,,,,,,,,fff,1 - without skip,"60:40, 57:43","2.5s, 2.0s",2023-07-16_16h08.27.210,Rewa's Exp,2023.1.2,59.97674101728344,
2,Countdown_2s.mp4,green,red,left,Countdown_2s.jpg,1,0,1,0,,,,,1,2,6,3,0,0,0,0,0,0,0,2,,,,152.31045019999146,154.28226670000004,1.971816500008572,,,,,-26,57:43,-2,157.62991080002394,None,0,,None,,,,,,,,fff,1 - without skip,"60:40, 57:43","2.5s, 2.0s",2023-07-16_16h08.27.210,Rewa's Exp,2023.1.2,59.97674101728344,
2,Countdown_2s.mp4,red,green,right,Countdown_2s.jpg,1,0,1,0,,,,,1,3,7,1,0,0,0,0,0,0,0,2,,,,158.24040160002187,160.21535200002836,1.9749504000064917,,,,,-28,57:43,-2,163.55980500002624,None,0,,None,,,,,,,,fff,1 - without skip,"60:40, 57:43","2.5s, 2.0s",2023-07-16_16h08.27.210,Rewa's Exp,2023.1.2,59.97674101728344,
2.5,Countdown_2.5s.mp4,red,green,right,Countdown_2.5s.jpg,1,0,1,0,,,,,,,,,0,0,0,2,0,0,0,0,,,,,,,,,,,,,,,,,,,166.68200680002337,166.68200680002337,166.68200680002337,166.68200680002337,space,1.127386900014244,,fff,1 - without skip,"60:40, 57:43","2.5s, 2.0s",2023-07-16_16h08.27.210,Rewa's Exp,2023.1.2,59.97674101728344,
2,Countdown_2s.mp4,green,red,left,Countdown_2s.jpg,2,0,2,0,0,0,0,3,,,,,0,0,0,2,0,0,0,0,,,,165.30333249998512,167.2821901999996,1.978857700014487,right,0,1.9556055000284687,None,-30,60:40,-2,,,,,,,,,,,,,fff,1 - without skip,"60:40, 57:43","2.5s, 2.0s",2023-07-16_16h08.27.210,Rewa's Exp,2023.1.2,59.97674101728344,
2.5,Countdown_2.5s.mp4,red,green,right,Countdown_2.5s.jpg,2,0,2,0,0,1,1,0,,,,,0,0,0,2,0,0,0,0,,,,171.2065738000092,171.48214239999652,0.2755685999873094,right,1,0.2518576000002213,None,-29,60:40,1,,,,,,,,,,,,,fff,1 - without skip,"60:40, 57:43","2.5s, 2.0s",2023-07-16_16h08.27.210,Rewa's Exp,2023.1.2,59.97674101728344,
2,Countdown_2s.mp4,red,green,right,Countdown_2s.jpg,2,0,2,0,0,2,2,1,,,,,0,0,0,2,0,0,0,0,,,,175.39454670000123,175.73233849997632,0.33779179997509345,right,1,0.31140020000748336,None,-28,60:40,1,,,,,,,,,,,,,fff,1 - without skip,"60:40, 57:43","2.5s, 2.0s",2023-07-16_16h08.27.210,Rewa's Exp,2023.1.2,59.97674101728344,
2.5,Countdown_2.5s.mp4,green,red,left,Countdown_2.5s.jpg,2,0,2,0,0,3,3,2,,,,,0,0,0,2,0,0,0,0,,,,179.63189509999938,182.1321569000138,2.500261800014414,None,0,,None,-30,60:40,-2,,,,,,,,,,,,,fff,1 - without skip,"60:40, 57:43","2.5s, 2.0s",2023-07-16_16h08.27.210,Rewa's Exp,2023.1.2,59.97674101728344,
2.5,Countdown_2.5s.mp4,green,red,left,Countdown_2.5s.jpg,2,0,2,0,1,0,4,2,,,,,0,0,0,2,0,0,0,0,,,,186.01970569998957,188.51563699997496,2.4959312999853864,None,0,,None,-32,60:40,-2,,,,,,,,,,,,,fff,1 - without skip,"60:40, 57:43","2.5s, 2.0s",2023-07-16_16h08.27.210,Rewa's Exp,2023.1.2,59.97674101728344,
2.5,Countdown_2.5s.mp4,red,green,right,Countdown_2.5s.jpg,2,0,2,0,1,1,5,0,,,,,0,0,0,2,0,0,0,0,,,,192.4139522999758,193.63222169998335,1.2182694000075571,right,1,1.187199399981182,None,-31,60:40,1,,,,,,,,,,,,,fff,1 - without skip,"60:40, 57:43","2.5s, 2.0s",2023-07-16_16h08.27.210,Rewa's Exp,2023.1.2,59.97674101728344,
2,Countdown_2s.mp4,green,red,left,Countdown_2s.jpg,2,0,2,0,1,2,6,3,,,,,0,0,0,2,0,0,0,0,,,,197.52960469998652,197.86559130001115,0.33598660002462566,right,0,0.3042301000095904,None,-33,60:40,-2,,,,,,,,,,,,,fff,1 - without skip,"60:40, 57:43","2.5s, 2.0s",2023-07-16_16h08.27.210,Rewa's Exp,2023.1.2,59.97674101728344,
2,Countdown_2s.mp4,red,green,right,Countdown_2s.jpg,2,0,2,0,1,3,7,1,,,,,0,0,0,2,0,0,0,0,,,,201.77359050000086,202.3988392999745,0.6252487999736331,right,1,0.5961565000470728,None,-32,60:40,1,,,,,,,,,,,,,fff,1 - without skip,"60:40, 57:43","2.5s, 2.0s",2023-07-16_16h08.27.210,Rewa's Exp,2023.1.2,59.97674101728344,
2.5,Countdown_2.5s.mp4,red,green,right,Countdown_2.5s.jpg,2,0,2,0,,,,,0,0,0,0,0,0,0,2,0,0,0,0,,,,206.32330380001804,206.64887929998804,0.32557549997000024,,,,,-31,57:43,1,211.64273339998908,right,1,0.2945365000050515,None,,,,,,,,fff,1 - without skip,"60:40, 57:43","2.5s, 2.0s",2023-07-16_16h08.27.210,Rewa's Exp,2023.1.2,59.97674101728344,
2,Countdown_2s.mp4,green,red,left,Countdown_2s.jpg,2,0,2,0,,,,,0,1,1,3,0,0,0,2,0,0,0,0,,,,210.5557316999766,210.86579800001346,0.3100663000368513,,,,,-33,57:43,-2,215.87521229998674,right,0,0.286362899991218,None,,,,,,,,fff,1 - without skip,"60:40, 57:43","2.5s, 2.0s",2023-07-16_16h08.27.210,Rewa's Exp,2023.1.2,59.97674101728344,
2.5,Countdown_2.5s.mp4,green,red,left,Countdown_2.5s.jpg,2,0,2,0,,,,,0,2,2,2,0,0,0,2,0,0,0,0,,,,214.79280410002684,215.11586119997082,0.3230570999439806,,,,,-35,57:43,-2,220.11231150000822,right,0,0.29015769995748997,None,,,,,,,,fff,1 - without skip,"60:40, 57:43","2.5s, 2.0s",2023-07-16_16h08.27.210,Rewa's Exp,2023.1.2,59.97674101728344,
2,Countdown_2s.mp4,red,green,right,Countdown_2s.jpg,2,0,2,0,,,,,0,3,3,1,0,0,0,2,0,0,0,0,,,,219.0136628000182,219.36630459997104,0.35264179995283484,,,,,-34,57:43,1,224.3331460999907,right,1,0.324350000009872,None,,,,,,,,fff,1 - without skip,"60:40, 57:43","2.5s, 2.0s",2023-07-16_16h08.27.210,Rewa's Exp,2023.1.2,59.97674101728344,
2.5,Countdown_2.5s.mp4,red,green,right,Countdown_2.5s.jpg,2,0,2,0,,,,,1,0,4,0,0,0,0,2,0,0,0,0,,,,223.3322679999983,224.26592079998227,0.9336527999839745,,,,,-33,57:43,1,228.6517452999833,right,1,0.909147500002291,None,,,,,,,,fff,1 - without skip,"60:40, 57:43","2.5s, 2.0s",2023-07-16_16h08.27.210,Rewa's Exp,2023.1.2,59.97674101728344,
2,Countdown_2s.mp4,green,red,left,Countdown_2s.jpg,2,0,2,0,,,,,1,1,5,3,0,0,0,2,0,0,0,0,,,,228.17227799998363,228.6159106999985,0.44363270001485944,,,,,-35,57:43,-2,233.49179000000004,right,0,0.42291850002948195,None,,,,,,,,fff,1 - without skip,"60:40, 57:43","2.5s, 2.0s",2023-07-16_16h08.27.210,Rewa's Exp,2023.1.2,59.97674101728344,
2.5,Countdown_2.5s.mp4,green,red,left,Countdown_2.5s.jpg,2,0,2,0,,,,,1,2,6,2,0,0,0,2,0,0,0,0,,,,232.53020259999903,233.03228200000012,0.5020794000010937,,,,,-37,57:43,-2,237.84963479998987,right,0,0.47143950004829094,None,,,,,,,,fff,1 - without skip,"60:40, 57:43","2.5s, 2.0s",2023-07-16_16h08.27.210,Rewa's Exp,2023.1.2,59.97674101728344,
2,Countdown_2s.mp4,red,green,right,Countdown_2s.jpg,2,0,2,0,,,,,1,3,7,1,0,0,0,2,0,0,0,0,,,,236.92502359999344,237.28252349997638,0.3574998999829404,,,,,-36,57:43,1,242.24446000001626,right,1,0.3247235000017099,None,,,,,,,,fff,1 - without skip,"60:40, 57:43","2.5s, 2.0s",2023-07-16_16h08.27.210,Rewa's Exp,2023.1.2,59.97674101728344,
2.5,Countdown_2.5s.mp4,green,red,left,Countdown_2.5s.jpg,2,0,2,0,,,,,,,,,0,0,0,0,0,0,0,2,,,,,,,,,,,,,,,,,,,243.7670008999994,243.7670008999994,243.7670008999994,243.7670008999994,space,2.049768899974879,,fff,1 - without skip,"60:40, 57:43","2.5s, 2.0s",2023-07-16_16h08.27.210,Rewa's Exp,2023.1.2,59.97674101728344,
2,Countdown_2s.mp4,green,red,left,Countdown_2s.jpg,3,0,3,0,0,0,0,3,,,,,0,0,0,0,0,0,0,2,,,,243.3062241000007,243.74913960002596,0.4429155000252649,left,1,0.4157481999718584,None,-35,60:40,1,,,,,,,,,,,,,fff,1 - without skip,"60:40, 57:43","2.5s, 2.0s",2023-07-16_16h08.27.210,Rewa's Exp,2023.1.2,59.97674101728344,
2.5,Countdown_2.5s.mp4,red,green,right,Countdown_2.5s.jpg,3,0,3,0,0,1,1,0,,,,,0,0,0,0,0,0,0,2,,,,247.67596660001436,247.9327322000172,0.25676560000283644,left,0,0.2384372999658808,None,-37,60:40,-2,,,,,,,,,,,,,fff,1 - without skip,"60:40, 57:43","2.5s, 2.0s",2023-07-16_16h08.27.210,Rewa's Exp,2023.1.2,59.97674101728344,
2.5,Countdown_2.5s.mp4,green,red,left,Countdown_2.5s.jpg,3,0,3,0,0,2,2,2,,,,,0,0,0,0,0,0,0,2,,,,251.83497159997933,252.13245490001282,0.2974833000334911,right,0,0.2794307000003755,None,-39,60:40,-2,,,,,,,,,,,,,fff,1 - without skip,"60:40, 57:43","2.5s, 2.0s",2023-07-16_16h08.27.210,Rewa's Exp,2023.1.2,59.97674101728344,
2,Countdown_2s.mp4,red,green,right,Countdown_2s.jpg,3,0,3,0,0,3,3,1,,,,,0,0,0,0,0,0,0,2,,,,256.03637159999926,256.3158184000058,0.27944680000655353,right,1,0.26123920001555234,None,-38,60:40,1,,,,,,,,,,,,,fff,1 - without skip,"60:40, 57:43","2.5s, 2.0s",2023-07-16_16h08.27.210,Rewa's Exp,2023.1.2,59.97674101728344,
2,Countdown_2s.mp4,green,red,left,Countdown_2s.jpg,3,0,3,0,1,0,4,3,,,,,0,0,0,0,0,0,0,2,,,,260.2326033000136,260.41565659997286,0.18305329995928332,right,0,0.16170739999506623,None,-40,60:40,-2,,,,,,,,,,,,,fff,1 - without skip,"60:40, 57:43","2.5s, 2.0s",2023-07-16_16h08.27.210,Rewa's Exp,2023.1.2,59.97674101728344,
2,Countdown_2s.mp4,red,green,right,Countdown_2s.jpg,3,0,3,0,1,1,5,1,,,,,0,0,0,0,0,0,0,2,,,,264.31157650001114,264.61583790002624,0.3042614000150934,left,0,0.2833373000030406,None,-42,60:40,-2,,,,,,,,,,,,,fff,1 - without skip,"60:40, 57:43","2.5s, 2.0s",2023-07-16_16h08.27.210,Rewa's Exp,2023.1.2,59.97674101728344,
2.5,Countdown_2.5s.mp4,red,green,right,Countdown_2.5s.jpg,3,0,3,0,1,2,6,0,,,,,0,0,0,0,0,0,0,2,,,,268.51924759999383,268.8825809999835,0.3633333999896422,left,0,0.3307287000352517,None,-44,60:40,-2,,,,,,,,,,,,,fff,1 - without skip,"60:40, 57:43","2.5s, 2.0s",2023-07-16_16h08.27.210,Rewa's Exp,2023.1.2,59.97674101728344,
2.5,Countdown_2.5s.mp4,green,red,left,Countdown_2.5s.jpg,3,0,3,0,1,3,7,2,,,,,0,0,0,0,0,0,0,2,,,,272.8025021000067,273.2822936999728,0.47979159996612,left,1,0.44763959996635094,None,-43,60:40,1,,,,,,,,,,,,,fff,1 - without skip,"60:40, 57:43","2.5s, 2.0s",2023-07-16_16h08.27.210,Rewa's Exp,2023.1.2,59.97674101728344,
2,Countdown_2s.mp4,red,green,right,Countdown_2s.jpg,3,0,3,0,,,,,0,0,0,1,0,0,0,0,0,0,0,2,,,,277.214263700007,277.8326728999964,0.6184091999894008,,,,,-45,57:43,-2,282.5337706999853,left,0,0.5959677000064403,None,,,,,,,,fff,1 - without skip,"60:40, 57:43","2.5s, 2.0s",2023-07-16_16h08.27.210,Rewa's Exp,2023.1.2,59.97674101728344,
2.5,Countdown_2.5s.mp4,green,red,left,Countdown_2.5s.jpg,3,0,3,0,,,,,0,1,1,2,0,0,0,0,0,0,0,2,,,,281.7318513999926,282.34906019998016,0.6172087999875657,,,,,-47,57:43,-2,287.05122850002954,right,0,0.5988364000222646,None,,,,,,,,fff,1 - without skip,"60:40, 57:43","2.5s, 2.0s",2023-07-16_16h08.27.210,Rewa's Exp,2023.1.2,59.97674101728344,
2,Countdown_2s.mp4,green,red,left,Countdown_2s.jpg,3,0,3,0,,,,,0,2,2,3,0,0,0,0,0,0,0,2,,,,286.24094940000214,286.6825378999929,0.44158849999075755,,,,,-46,57:43,1,291.5604184999829,left,1,0.4092377999913879,None,,,,,,,,fff,1 - without skip,"60:40, 57:43","2.5s, 2.0s",2023-07-16_16h08.27.210,Rewa's Exp,2023.1.2,59.97674101728344,
2.5,Countdown_2.5s.mp4,red,green,right,Countdown_2.5s.jpg,3,0,3,0,,,,,0,3,3,0,0,0,0,0,0,0,0,2,,,,290.5910938999732,291.08263710001484,0.4915432000416331,,,,,-45,57:43,1,295.9105365999858,right,1,0.45883910002885386,None,,,,,,,,fff,1 - without skip,"60:40, 57:43","2.5s, 2.0s",2023-07-16_16h08.27.210,Rewa's Exp,2023.1.2,59.97674101728344,
2,Countdown_2s.mp4,green,red,left,Countdown_2s.jpg,3,0,3,0,,,,,1,0,4,3,0,0,0,0,0,0,0,2,,,,295.0402480000048,295.515922599996,0.47567459999118,,,,,-44,57:43,1,300.35975990002044,left,1,0.44295579998288304,None,,,,,,,,fff,1 - without skip,"60:40, 57:43","2.5s, 2.0s",2023-07-16_16h08.27.210,Rewa's Exp,2023.1.2,59.97674101728344,
2.5,Countdown_2.5s.mp4,red,green,right,Countdown_2.5s.jpg,3,0,3,0,,,,,1,1,5,0,0,0,0,0,0,0,0,2,,,,299.4834439000115,300.43327540002065,0.9498315000091679,,,,,-46,57:43,-2,304.8029170000227,left,0,0.9179082000046037,None,,,,,,,,fff,1 - without skip,"60:40, 57:43","2.5s, 2.0s",2023-07-16_16h08.27.210,Rewa's Exp,2023.1.2,59.97674101728344,
2,Countdown_2s.mp4,red,green,right,Countdown_2s.jpg,3,0,3,0,,,,,1,2,6,1,0,0,0,0,0,0,0,2,,,,304.36778349999804,306.3490774999955,1.9812939999974333,,,,,-48,57:43,-2,309.6873336000135,None,0,,None,,,,,,,,fff,1 - without skip,"60:40, 57:43","2.5s, 2.0s",2023-07-16_16h08.27.210,Rewa's Exp,2023.1.2,59.97674101728344,
2.5,Countdown_2.5s.mp4,green,red,left,Countdown_2.5s.jpg,3,0,3,0,,,,,1,3,7,2,0,0,0,0,0,0,0,2,,,,310.2515279999934,310.6325015000184,0.380973500024993,,,,,-50,57:43,-2,315.5710693000001,right,0,0.3502936000004411,None,,,,,,,,fff,1 - without skip,"60:40, 57:43","2.5s, 2.0s",2023-07-16_16h08.27.210,Rewa's Exp,2023.1.2,59.97674101728344,
2.5,Countdown_2.5s.mp4,red,green,right,Countdown_2.5s.jpg,3,0,3,0,,,,,,,,,0,0,0,3,0,0,0,0,,,,,,,,,,,,,,,,,,,317.0964721000055,317.0964721000055,317.0964721000055,317.0964721000055,space,3.0978253000066616,,fff,1 - without skip,"60:40, 57:43","2.5s, 2.0s",2023-07-16_16h08.27.210,Rewa's Exp,2023.1.2,59.97674101728344,
2.5,Countdown_2.5s.mp4,red,green,right,Countdown_2.5s.jpg,4,0,4,0,0,0,0,0,,,,,0,0,0,3,0,0,0,0,,,,317.6785237999866,318.0326850999845,0.35416129999794066,right,1,0.3328321000444703,None,-49,60:40,1,,,,,,,,,,,,,fff,1 - without skip,"60:40, 57:43","2.5s, 2.0s",2023-07-16_16h08.27.210,Rewa's Exp,2023.1.2,59.97674101728344,
2,Countdown_2s.mp4,red,green,right,Countdown_2s.jpg,4,0,4,0,0,1,1,1,,,,,0,0,0,3,0,0,0,0,,,,321.99768239998957,322.4160904000164,0.41840800002682954,right,1,0.3966774999862537,None,-48,60:40,1,,,,,,,,,,,,,fff,1 - without skip,"60:40, 57:43","2.5s, 2.0s",2023-07-16_16h08.27.210,Rewa's Exp,2023.1.2,59.97674101728344,
2.5,Countdown_2.5s.mp4,green,red,left,Countdown_2.5s.jpg,4,0,4,0,0,2,2,2,,,,,0,0,0,3,0,0,0,0,,,,326.3097928999923,326.8825224000029,0.5727295000106096,left,1,0.5397767999675125,None,-47,60:40,1,,,,,,,,,,,,,fff,1 - without skip,"60:40, 57:43","2.5s, 2.0s",2023-07-16_16h08.27.210,Rewa's Exp,2023.1.2,59.97674101728344,
2,Countdown_2s.mp4,green,red,left,Countdown_2s.jpg,4,0,4,0,0,3,3,3,,,,,0,0,0,3,0,0,0,0,,,,330.8233242999995,330.91605479997816,0.09273049997864291,left,1,0.06707089999690652,None,-46,60:40,1,,,,,,,,,,,,,fff,1 - without skip,"60:40, 57:43","2.5s, 2.0s",2023-07-16_16h08.27.210,Rewa's Exp,2023.1.2,59.97674101728344,
2.5,Countdown_2.5s.mp4,green,red,left,Countdown_2.5s.jpg,4,0,4,0,1,0,4,2,,,,,0,0,0,3,0,0,0,0,,,,334.8602755999891,335.4993139000144,0.6390383000252768,left,1,0.6142542000161484,None,-45,60:40,1,,,,,,,,,,,,,fff,1 - without skip,"60:40, 57:43","2.5s, 2.0s",2023-07-16_16h08.27.210,Rewa's Exp,2023.1.2,59.97674101728344,
2,Countdown_2s.mp4,red,green,right,Countdown_2s.jpg,4,0,4,0,1,1,5,1,,,,,0,0,0,3,0,0,0,0,,,,339.4208477999782,339.6992976000183,0.2784498000401072,left,0,0.25370349996956065,None,-47,60:40,-2,,,,,,,,,,,,,fff,1 - without skip,"60:40, 57:43","2.5s, 2.0s",2023-07-16_16h08.27.210,Rewa's Exp,2023.1.2,59.97674101728344,
2.5,Countdown_2.5s.mp4,red,green,right,Countdown_2.5s.jpg,4,0,4,0,1,2,6,0,,,,,0,0,0,3,0,0,0,0,,,,343.6117806999828,346.0991636000108,2.487382900028024,None,0,,None,-49,60:40,-2,,,,,,,,,,,,,fff,1 - without skip,"60:40, 57:43","2.5s, 2.0s",2023-07-16_16h08.27.210,Rewa's Exp,2023.1.2,59.97674101728344,
2,Countdown_2s.mp4,green,red,left,Countdown_2s.jpg,4,0,4,0,1,3,7,3,,,,,0,0,0,3,0,0,0,0,,,,350.008054099977,350.1826058999868,0.17455180000979453,left,1,0.1462984000099823,None,-48,60:40,1,,,,,,,,,,,,,fff,1 - without skip,"60:40, 57:43","2.5s, 2.0s",2023-07-16_16h08.27.210,Rewa's Exp,2023.1.2,59.97674101728344,
2,Countdown_2s.mp4,green,red,left,Countdown_2s.jpg,4,0,4,0,,,,,0,0,0,3,0,0,0,3,0,0,0,0,,,,354.07518759998493,355.5158451999887,1.4406576000037603,,,,,-47,57:43,1,359.3946825999883,left,1,1.4229836000013165,None,,,,,,,,fff,1 - without skip,"60:40, 57:43","2.5s, 2.0s",2023-07-16_16h08.27.210,Rewa's Exp,2023.1.2,59.97674101728344,
2,Countdown_2s.mp4,red,green,right,Countdown_2s.jpg,4,0,4,0,,,,,0,1,1,1,0,0,0,3,0,0,0,0,,,,359.4352933000191,359.5658808000153,0.13058749999618158,,,,,-49,57:43,-2,364.7547530999873,left,0,0.10281320003559813,None,,,,,,,,fff,1 - without skip,"60:40, 57:43","2.5s, 2.0s",2023-07-16_16h08.27.210,Rewa's Exp,2023.1.2,59.97674101728344,
2.5,Countdown_2.5s.mp4,green,red,left,Countdown_2.5s.jpg,4,0,4,0,,,,,0,2,2,2,0,0,0,3,0,0,0,0,,,,363.5090368000092,363.5379535999964,0.028916799987200648,,,,,-48,57:43,1,368.82848239998566,left,1,0.013883200008422136,None,,,,,,,,fff,1 - without skip,"60:40, 57:43","2.5s, 2.0s",2023-07-16_16h08.27.210,Rewa's Exp,2023.1.2,59.97674101728344,
2.5,Countdown_2.5s.mp4,red,green,right,Countdown_2.5s.jpg,4,0,4,0,,,,,0,3,3,0,0,0,0,3,0,0,0,0,,,,367.46535130002303,367.582877799985,0.11752649996196851,,,,,-50,57:43,-2,372.78488549997564,left,0,0.0961830000160262,None,,,,,,,,fff,1 - without skip,"60:40, 57:43","2.5s, 2.0s",2023-07-16_16h08.27.210,Rewa's Exp,2023.1.2,59.97674101728344,
2.5,Countdown_2.5s.mp4,red,green,right,Countdown_2.5s.jpg,4,0,4,0,,,,,1,0,4,0,0,0,0,3,0,0,0,0,,,,371.5081241999869,371.74936419998994,0.24124000000301749,,,,,-52,57:43,-2,376.82762220001314,left,0,0.22158820001641288,None,,,,,,,,fff,1 - without skip,"60:40, 57:43","2.5s, 2.0s",2023-07-16_16h08.27.210,Rewa's Exp,2023.1.2,59.97674101728344,
2,Countdown_2s.mp4,red,green,right,Countdown_2s.jpg,4,0,4,0,,,,,1,1,5,1,0,0,0,3,0,0,0,0,,,,375.6796796999988,376.8991023999988,1.2194226999999955,,,,,-54,57:43,-2,380.99915310001234,left,0,1.187015200033784,None,,,,,,,,fff,1 - without skip,"60:40, 57:43","2.5s, 2.0s",2023-07-16_16h08.27.210,Rewa's Exp,2023.1.2,59.97674101728344,
2.5,Countdown_2.5s.mp4,green,red,left,Countdown_2.5s.jpg,4,0,4,0,,,,,1,2,6,2,0,0,0,3,0,0,0,0,,,,380.79311319999397,381.3325826000073,0.5394694000133313,,,,,-53,57:43,1,386.112538699992,left,1,0.5124750999966636,None,,,,,,,,fff,1 - without skip,"60:40, 57:43","2.5s, 2.0s",2023-07-16_16h08.27.210,Rewa's Exp,2023.1.2,59.97674101728344,
2,Countdown_2s.mp4,green,red,left,Countdown_2s.jpg,4,0,4,0,,,,,1,3,7,3,0,0,0,3,0,0,0,0,,,,385.22330239997245,385.6162361999741,0.3929338000016287,,,,,-52,57:43,1,390.5427824999788,left,1,0.3710177000029944,None,,,,,,,,fff,1 - without skip,"60:40, 57:43","2.5s, 2.0s",2023-07-16_16h08.27.210,Rewa's Exp,2023.1.2,59.97674101728344,
2.5,Countdown_2.5s.mp4,red,green,right,Countdown_2.5s.jpg,4,0,4,0,,,,,,,,,0,0,0,1,0,0,0,0,,,,,,,,,,,,,,,,,,,392.0979604999884,392.0979604999884,392.0979604999884,392.0979604999884,space,2.056004799960647,,fff,1 - without skip,"60:40, 57:43","2.5s, 2.0s",2023-07-16_16h08.27.210,Rewa's Exp,2023.1.2,59.97674101728344,
2.5,Countdown_2.5s.mp4,green,red,left,Countdown_2.5s.jpg,5,0,5,0,0,0,0,2,,,,,0,0,0,1,0,0,0,0,,,,391.658901399991,391.932659699989,0.2737582999980077,left,1,0.25519370002439246,None,-51,60:40,1,,,,,,,,,,,,,fff,1 - without skip,"60:40, 57:43","2.5s, 2.0s",2023-07-16_16h08.27.210,Rewa's Exp,2023.1.2,59.97674101728344,
2,Countdown_2s.mp4,red,green,right,Countdown_2s.jpg,5,0,5,0,0,1,1,1,,,,,0,0,0,1,0,0,0,0,,,,395.86337869998533,396.16590480000013,0.30252610001480207,right,1,0.28283509996253997,None,-50,60:40,1,,,,,,,,,,,,,fff,1 - without skip,"60:40, 57:43","2.5s, 2.0s",2023-07-16_16h08.27.210,Rewa's Exp,2023.1.2,59.97674101728344,
2,Countdown_2s.mp4,green,red,left,Countdown_2s.jpg,5,0,5,0,0,2,2,3,,,,,0,0,0,1,0,0,0,0,,,,400.0588211999857,401.0992383999983,1.0404172000125982,right,0,1.0164798999903724,None,-52,60:40,-2,,,,,,,,,,,,,fff,1 - without skip,"60:40, 57:43","2.5s, 2.0s",2023-07-16_16h08.27.210,Rewa's Exp,2023.1.2,59.97674101728344,
2.5,Countdown_2.5s.mp4,red,green,right,Countdown_2.5s.jpg,5,0,5,0,0,3,3,0,,,,,0,0,0,1,0,0,0,0,,,,405.02099400002044,405.5827053000103,0.5617112999898382,left,0,0.541766699985601,None,-54,60:40,-2,,,,,,,,,,,,,fff,1 - without skip,"60:40, 57:43","2.5s, 2.0s",2023-07-16_16h08.27.210,Rewa's Exp,2023.1.2,59.97674101728344,
2.5,Countdown_2.5s.mp4,green,red,left,Countdown_2.5s.jpg,5,0,5,0,1,0,4,2,,,,,0,0,0,1,0,0,0,0,,,,409.4958465999807,410.21594839997124,0.7201017999905162,right,0,0.6987110000336543,None,-56,60:40,-2,,,,,,,,,,,,,fff,1 - without skip,"60:40, 57:43","2.5s, 2.0s",2023-07-16_16h08.27.210,Rewa's Exp,2023.1.2,59.97674101728344,
2,Countdown_2s.mp4,red,green,right,Countdown_2s.jpg,5,0,5,0,1,1,5,1,,,,,0,0,0,1,0,0,0,0,,,,414.1251882999786,414.68263300001854,0.5574447000399232,right,1,0.5406117000384256,None,-55,60:40,1,,,,,,,,,,,,,fff,1 - without skip,"60:40, 57:43","2.5s, 2.0s",2023-07-16_16h08.27.210,Rewa's Exp,2023.1.2,59.97674101728344,
2.5,Countdown_2.5s.mp4,red,green,right,Countdown_2.5s.jpg,5,0,5,0,1,2,6,0,,,,,0,0,0,1,0,0,0,0,,,,418.6070539000211,419.51642479997827,0.909370899957139,right,1,0.8826046999893151,None,-54,60:40,1,,,,,,,,,,,,,fff,1 - without skip,"60:40, 57:43","2.5s, 2.0s",2023-07-16_16h08.27.210,Rewa's Exp,2023.1.2,59.97674101728344,
2,Countdown_2s.mp4,green,red,left,Countdown_2s.jpg,5,0,5,0,1,3,7,3,,,,,0,0,0,1,0,0,0,0,,,,423.4523298999993,424.1493841999909,0.6970542999915779,left,1,0.6709865999873728,None,-53,60:40,1,,,,,,,,,,,,,fff,1 - without skip,"60:40, 57:43","2.5s, 2.0s",2023-07-16_16h08.27.210,Rewa's Exp,2023.1.2,59.97674101728344,
2.5,Countdown_2.5s.mp4,green,red,left,Countdown_2.5s.jpg,5,0,5,0,,,,,0,0,0,2,0,0,0,1,0,0,0,0,,,,428.06527860002825,428.5492713000276,0.48399269999936223,,,,,-55,57:43,-2,433.38471399998525,right,0,0.4652847000397742,None,,,,,,,,fff,1 - without skip,"60:40, 57:43","2.5s, 2.0s",2023-07-16_16h08.27.210,Rewa's Exp,2023.1.2,59.97674101728344,
2,Countdown_2s.mp4,green,red,left,Countdown_2s.jpg,5,0,5,0,,,,,0,1,1,3,0,0,0,1,0,0,0,0,,,,432.4458039000165,433.21615669998573,0.7703527999692596,,,,,-54,57:43,1,437.76532010000665,left,1,0.7398632000549696,None,,,,,,,,fff,1 - without skip,"60:40, 57:43","2.5s, 2.0s",2023-07-16_16h08.27.210,Rewa's Exp,2023.1.2,59.97674101728344,
2,Countdown_2s.mp4,red,green,right,Countdown_2s.jpg,5,0,5,0,,,,,0,2,2,1,0,0,0,1,0,0,0,0,,,,437.12939229997573,437.7161401999765,0.5867479000007734,,,,,-53,57:43,1,442.4488895999966,right,1,0.5609382000402547,None,,,,,,,,fff,1 - without skip,"60:40, 57:43","2.5s, 2.0s",2023-07-16_16h08.27.210,Rewa's Exp,2023.1.2,59.97674101728344,
2.5,Countdown_2.5s.mp4,red,green,right,Countdown_2.5s.jpg,5,0,5,0,,,,,0,3,3,0,0,0,0,1,0,0,0,0,,,,441.6608013000223,442.2995684000198,0.6387670999974944,,,,,-52,57:43,1,446.98030490003293,right,1,0.6216908000060357,None,,,,,,,,fff,1 - without skip,"60:40, 57:43","2.5s, 2.0s",2023-07-16_16h08.27.210,Rewa's Exp,2023.1.2,59.97674101728344,
2.5,Countdown_2.5s.mp4,red,green,right,Countdown_2.5s.jpg,5,0,5,0,,,,,1,0,4,0,0,0,0,1,0,0,0,0,,,,446.22510580002563,446.8660721000051,0.6409662999794818,,,,,-54,57:43,-2,451.5446608000202,left,0,0.6181918000220321,None,,,,,,,,fff,1 - without skip,"60:40, 57:43","2.5s, 2.0s",2023-07-16_16h08.27.210,Rewa's Exp,2023.1.2,59.97674101728344,
2,Countdown_2s.mp4,red,green,right,Countdown_2s.jpg,5,0,5,0,,,,,1,1,5,1,0,0,0,1,0,0,0,0,,,,450.7734947000281,451.33287659997586,0.5593818999477662,,,,,-53,57:43,1,456.0929511000286,right,1,0.5335928999702446,None,,,,,,,,fff,1 - without skip,"60:40, 57:43","2.5s, 2.0s",2023-07-16_16h08.27.210,Rewa's Exp,2023.1.2,59.97674101728344,
2,Countdown_2s.mp4,green,red,left,Countdown_2s.jpg,5,0,5,0,,,,,1,2,6,3,0,0,0,1,0,0,0,0,,,,455.2516318000271,455.6838133999845,0.4321815999574028,,,,,-55,57:43,-2,460.5711527999956,right,0,0.3989020000444725,None,,,,,,,,fff,1 - without skip,"60:40, 57:43","2.5s, 2.0s",2023-07-16_16h08.27.210,Rewa's Exp,2023.1.2,59.97674101728344,
2.5,Countdown_2.5s.mp4,green,red,left,Countdown_2.5s.jpg,5,0,5,0,,,,,1,3,7,2,0,0,0,1,0,0,0,0,,,,459.61344929999905,460.049915599986,0.4364662999869324,,,,,-54,57:43,1,464.93296030000784,left,1,0.40474620001623407,None,,,,,,,,fff,1 - without skip,"60:40, 57:43","2.5s, 2.0s",2023-07-16_16h08.27.210,Rewa's Exp,2023.1.2,59.97674101728344,
2,Countdown_2s.mp4,red,green,right,Countdown_2s.jpg,5,0,5,0,,,,,,,,,0,0,0,3,0,0,0,1,,,,,,,,,,,,,,,,,,,466.53972160001285,466.53972160001285,466.53972160001285,466.53972160001285,space,1.1586104000452906,,fff,1 - without skip,"60:40, 57:43","2.5s, 2.0s",2023-07-16_16h08.27.210,Rewa's Exp,2023.1.2,59.97674101728344,
2,Countdown_2s.mp4,red,green,right,Countdown_2s.jpg,6,0,6,0,0,0,0,1,,,,,0,0,0,3,0,0,0,1,,,,465.19186540000373,465.69971559999976,0.5078501999960281,left,0,0.48296619998291135,None,-56,60:40,-2,,,,,,,,,,,,,fff,1 - without skip,"60:40, 57:43","2.5s, 2.0s",2023-07-16_16h08.27.210,Rewa's Exp,2023.1.2,59.97674101728344,
2.5,Countdown_2.5s.mp4,green,red,left,Countdown_2.5s.jpg,6,0,6,0,0,1,1,2,,,,,0,0,0,3,0,0,0,1,,,,469.6308913999819,470.06635390000883,0.4354625000269152,left,1,0.4193422999815084,None,-55,60:40,1,,,,,,,,,,,,,fff,1 - without skip,"60:40, 57:43","2.5s, 2.0s",2023-07-16_16h08.27.210,Rewa's Exp,2023.1.2,59.97674101728344,
2,Countdown_2s.mp4,green,red,left,Countdown_2s.jpg,6,0,6,0,0,2,2,3,,,,,0,0,0,3,0,0,0,1,,,,474.0281549000065,474.4164289999753,0.38827409996883944,left,1,0.3661077999859117,None,-54,60:40,1,,,,,,,,,,,,,fff,1 - without skip,"60:40, 57:43","2.5s, 2.0s",2023-07-16_16h08.27.210,Rewa's Exp,2023.1.2,59.97674101728344,
2.5,Countdown_2.5s.mp4,red,green,right,Countdown_2.5s.jpg,6,0,6,0,0,3,3,0,,,,,0,0,0,3,0,0,0,1,,,,478.3872607999947,478.799443099997,0.41218230000231415,left,0,0.38270690001081675,None,-56,60:40,-2,,,,,,,,,,,,,fff,1 - without skip,"60:40, 57:43","2.5s, 2.0s",2023-07-16_16h08.27.210,Rewa's Exp,2023.1.2,59.97674101728344,
2,Countdown_2s.mp4,green,red,left,Countdown_2s.jpg,6,0,6,0,1,0,4,3,,,,,0,0,0,3,0,0,0,1,,,,482.75750920001883,483.23303439997835,0.47552519995952025,left,1,0.4530508000170812,None,-55,60:40,1,,,,,,,,,,,,,fff,1 - without skip,"60:40, 57:43","2.5s, 2.0s",2023-07-16_16h08.27.210,Rewa's Exp,2023.1.2,59.97674101728344,
2,Countdown_2s.mp4,red,green,right,Countdown_2s.jpg,6,0,6,0,1,1,5,1,,,,,0,0,0,3,0,0,0,1,,,,487.2138237999752,487.7995767000248,0.585752900049556,left,0,0.5559207000187598,None,-57,60:40,-2,,,,,,,,,,,,,fff,1 - without skip,"60:40, 57:43","2.5s, 2.0s",2023-07-16_16h08.27.210,Rewa's Exp,2023.1.2,59.97674101728344,
2.5,Countdown_2.5s.mp4,green,red,left,Countdown_2.5s.jpg,6,0,6,0,1,2,6,2,,,,,0,0,0,3,0,0,0,1,,,,491.69892320001964,492.1830017999746,0.4840785999549553,right,0,0.4643756999867037,None,-59,60:40,-2,,,,,,,,,,,,,fff,1 - without skip,"60:40, 57:43","2.5s, 2.0s",2023-07-16_16h08.27.210,Rewa's Exp,2023.1.2,59.97674101728344,
2.5,Countdown_2.5s.mp4,red,green,right,Countdown_2.5s.jpg,6,0,6,0,1,3,7,0,,,,,0,0,0,3,0,0,0,1,,,,496.09792099997867,496.5406106999726,0.4426896999939345,left,0,0.41662089998135343,None,-61,60:40,-2,,,,,,,,,,,,,fff,1 - without skip,"60:40, 57:43","2.5s, 2.0s",2023-07-16_16h08.27.210,Rewa's Exp,2023.1.2,59.97674101728344,
2,Countdown_2s.mp4,red,green,right,Countdown_2s.jpg,6,0,6,0,,,,,0,0,0,1,0,0,0,3,0,0,0,1,,,,500.5113179999753,500.91626490000635,0.4049469000310637,,,,,-60,57:43,1,505.830326299998,right,1,0.3804572999943048,None,,,,,,,,fff,1 - without skip,"60:40, 57:43","2.5s, 2.0s",2023-07-16_16h08.27.210,Rewa's Exp,2023.1.2,59.97674101728344,
2,Countdown_2s.mp4,green,red,left,Countdown_2s.jpg,6,0,6,0,,,,,0,1,1,3,0,0,0,3,0,0,0,1,,,,504.8635436000186,505.28297629998997,0.4194326999713667,,,,,-62,57:43,-2,510.1830431999988,right,0,0.4022766000125557,None,,,,,,,,fff,1 - without skip,"60:40, 57:43","2.5s, 2.0s",2023-07-16_16h08.27.210,Rewa's Exp,2023.1.2,59.97674101728344,
2.5,Countdown_2.5s.mp4,red,green,right,Countdown_2.5s.jpg,6,0,6,0,,,,,0,2,2,0,0,0,0,3,0,0,0,1,,,,509.18179860000964,510.5333089000196,1.351510300009977,,,,,-64,57:43,-2,514.5012654000311,left,0,1.3248707000166178,None,,,,,,,,fff,1 - without skip,"60:40, 57:43","2.5s, 2.0s",2023-07-16_16h08.27.210,Rewa's Exp,2023.1.2,59.97674101728344,
2.5,Countdown_2.5s.mp4,green,red,left,Countdown_2.5s.jpg,6,0,6,0,,,,,0,3,3,2,0,0,0,3,0,0,0,1,,,,514.461407899973,516.4993917000247,2.037983800051734,,,,,-66,57:43,-2,519.7807439999888,right,0,2.0136841000057757,None,,,,,,,,fff,1 - without skip,"60:40, 57:43","2.5s, 2.0s",2023-07-16_16h08.27.210,Rewa's Exp,2023.1.2,59.97674101728344,
2.5,Countdown_2.5s.mp4,green,red,left,Countdown_2.5s.jpg,6,0,6,0,,,,,1,0,4,2,0,0,0,3,0,0,0,1,,,,520.4268977000029,520.7663421999896,0.3394444999867119,,,,,-68,57:43,-2,525.7464597999933,right,0,0.3194670000229962,None,,,,,,,,fff,1 - without skip,"60:40, 57:43","2.5s, 2.0s",2023-07-16_16h08.27.210,Rewa's Exp,2023.1.2,59.97674101728344,
2.5,Countdown_2.5s.mp4,red,green,right,Countdown_2.5s.jpg,6,0,6,0,,,,,1,1,5,0,0,0,0,3,0,0,0,1,,,,524.6652415000135,525.0998817000072,0.43464019999373704,,,,,-67,57:43,1,529.9847618999775,right,1,0.41717079997761175,None,,,,,,,,fff,1 - without skip,"60:40, 57:43","2.5s, 2.0s",2023-07-16_16h08.27.210,Rewa's Exp,2023.1.2,59.97674101728344,
2,Countdown_2s.mp4,green,red,left,Countdown_2s.jpg,6,0,6,0,,,,,1,2,6,3,0,0,0,3,0,0,0,1,,,,529.0773857000167,529.4995309999795,0.42214529996272177,,,,,-69,57:43,-2,534.3968934000004,right,0,0.39767430000938475,None,,,,,,,,fff,1 - without skip,"60:40, 57:43","2.5s, 2.0s",2023-07-16_16h08.27.210,Rewa's Exp,2023.1.2,59.97674101728344,
2,Countdown_2s.mp4,red,green,right,Countdown_2s.jpg,6,0,6,0,,,,,1,3,7,1,0,0,0,3,0,0,0,1,,,,533.4096038999851,533.8331585000269,0.4235546000418253,,,,,-71,57:43,-2,538.7291424000286,left,0,0.39306749997194856,None,,,,,,,,fff,1 - without skip,"60:40, 57:43","2.5s, 2.0s",2023-07-16_16h08.27.210,Rewa's Exp,2023.1.2,59.97674101728344,
2.5,Countdown_2.5s.mp4,red,green,right,Countdown_2.5s.jpg,6,0,6,0,,,,,,,,,0,0,0,1,0,0,0,0,,,,,,,,,,,,,,,,,,,540.2834509999957,540.2834509999957,540.2834509999957,540.2834509999957,space,2.438169199973345,,fff,1 - without skip,"60:40, 57:43","2.5s, 2.0s",2023-07-16_16h08.27.210,Rewa's Exp,2023.1.2,59.97674101728344,
2.5,Countdown_2.5s.mp4,green,red,left,Countdown_2.5s.jpg,7,0,7,0,0,0,0,2,,,,,0,0,0,1,0,0,0,0,,,,540.207854599983,540.5497230999754,0.3418684999924153,right,0,0.31444499996723607,None,-73,60:40,-2,,,,,,,,,,,,,fff,1 - without skip,"60:40, 57:43","2.5s, 2.0s",2023-07-16_16h08.27.210,Rewa's Exp,2023.1.2,59.97674101728344,
2,Countdown_2s.mp4,red,green,right,Countdown_2s.jpg,7,0,7,0,0,1,1,1,,,,,0,0,0,1,0,0,0,0,,,,544.4399892999791,544.7995971000055,0.35960780002642423,right,1,0.32962159998714924,None,-72,60:40,1,,,,,,,,,,,,,fff,1 - without skip,"60:40, 57:43","2.5s, 2.0s",2023-07-16_16h08.27.210,Rewa's Exp,2023.1.2,59.97674101728344,
2,Countdown_2s.mp4,green,red,left,Countdown_2s.jpg,7,0,7,0,0,2,2,3,,,,,0,0,0,1,0,0,0,0,,,,548.7196955999825,549.0162458000123,0.296550200029742,right,0,0.2750097999814898,None,-74,60:40,-2,,,,,,,,,,,,,fff,1 - without skip,"60:40, 57:43","2.5s, 2.0s",2023-07-16_16h08.27.210,Rewa's Exp,2023.1.2,59.97674101728344,
2.5,Countdown_2.5s.mp4,red,green,right,Countdown_2.5s.jpg,7,0,7,0,0,3,3,0,,,,,0,0,0,1,0,0,0,0,,,,552.925611499988,553.3664856000105,0.4408741000224836,right,1,0.41326829994795844,None,-73,60:40,1,,,,,,,,,,,,,fff,1 - without skip,"60:40, 57:43","2.5s, 2.0s",2023-07-16_16h08.27.210,Rewa's Exp,2023.1.2,59.97674101728344,
2.5,Countdown_2.5s.mp4,green,red,left,Countdown_2.5s.jpg,7,0,7,0,1,0,4,2,,,,,0,0,0,1,0,0,0,0,,,,557.2814632999944,557.6162945000106,0.3348312000161968,right,0,0.3046382000320591,None,-75,60:40,-2,,,,,,,,,,,,,fff,1 - without skip,"60:40, 57:43","2.5s, 2.0s",2023-07-16_16h08.27.210,Rewa's Exp,2023.1.2,59.97674101728344,
2,Countdown_2s.mp4,green,red,left,Countdown_2s.jpg,7,0,7,0,1,1,5,3,,,,,0,0,0,1,0,0,0,0,,,,561.4997974999715,561.8163531000027,0.316555600031279,right,0,0.2952433000318706,None,-77,60:40,-2,,,,,,,,,,,,,fff,1 - without skip,"60:40, 57:43","2.5s, 2.0s",2023-07-16_16h08.27.210,Rewa's Exp,2023.1.2,59.97674101728344,
2.5,Countdown_2.5s.mp4,red,green,right,Countdown_2.5s.jpg,7,0,7,0,1,2,6,0,,,,,0,0,0,1,0,0,0,0,,,,565.7362857999979,566.1497713000281,0.41348550003021955,right,1,0.3854799999971874,None,-76,60:40,1,,,,,,,,,,,,,fff,1 - without skip,"60:40, 57:43","2.5s, 2.0s",2023-07-16_16h08.27.210,Rewa's Exp,2023.1.2,59.97674101728344,
2,Countdown_2s.mp4,red,green,right,Countdown_2s.jpg,7,0,7,0,1,3,7,1,,,,,0,0,0,1,0,0,0,0,,,,570.092081299983,570.9666228999849,0.8745416000019759,right,1,0.8460417999885976,None,-75,60:40,1,,,,,,,,,,,,,fff,1 - without skip,"60:40, 57:43","2.5s, 2.0s",2023-07-16_16h08.27.210,Rewa's Exp,2023.1.2,59.97674101728344,
2.5,Countdown_2.5s.mp4,red,green,right,Countdown_2.5s.jpg,7,0,7,0,,,,,0,0,0,0,0,0,0,1,0,0,0,0,,,,574.8852023999789,575.2662934000255,0.38109100004658103,,,,,-74,57:43,1,580.2047543000081,right,1,0.3486489999922924,None,,,,,,,,fff,1 - without skip,"60:40, 57:43","2.5s, 2.0s",2023-07-16_16h08.27.210,Rewa's Exp,2023.1.2,59.97674101728344,
2.5,Countdown_2.5s.mp4,green,red,left,Countdown_2.5s.jpg,7,0,7,0,,,,,0,1,1,2,0,0,0,1,0,0,0,0,,,,579.1732333999826,581.0496769999736,1.8764435999910347,,,,,-76,57:43,-2,584.4925833999878,right,0,1.8447732999920845,None,,,,,,,,fff,1 - without skip,"60:40, 57:43","2.5s, 2.0s",2023-07-16_16h08.27.210,Rewa's Exp,2023.1.2,59.97674101728344,
2,Countdown_2s.mp4,green,red,left,Countdown_2s.jpg,7,0,7,0,,,,,0,2,2,3,0,0,0,1,0,0,0,0,,,,584.9659518999979,585.483264999988,0.5173130999901332,,,,,-78,57:43,-2,590.2854457999929,right,0,0.4924472999991849,None,,,,,,,,fff,1 - without skip,"60:40, 57:43","2.5s, 2.0s",2023-07-16_16h08.27.210,Rewa's Exp,2023.1.2,59.97674101728344,
2,Countdown_2s.mp4,red,green,right,Countdown_2s.jpg,7,0,7,0,,,,,0,3,3,1,0,0,0,1,0,0,0,0,,,,589.4451995000127,589.766491700022,0.32129220000933856,,,,,-77,57:43,1,594.7646536999964,right,1,0.29296799999428913,None,,,,,,,,fff,1 - without skip,"60:40, 57:43","2.5s, 2.0s",2023-07-16_16h08.27.210,Rewa's Exp,2023.1.2,59.97674101728344,
2,Countdown_2s.mp4,green,red,left,Countdown_2s.jpg,7,0,7,0,,,,,1,0,4,3,0,0,0,1,0,0,0,0,,,,593.7001318000257,594.0663610000047,0.3662291999789886,,,,,-79,57:43,-2,599.0196946000215,right,0,0.34321890003047884,None,,,,,,,,fff,1 - without skip,"60:40, 57:43","2.5s, 2.0s",2023-07-16_16h08.27.210,Rewa's Exp,2023.1.2,59.97674101728344,
2,Countdown_2s.mp4,red,green,right,Countdown_2s.jpg,7,0,7,0,,,,,1,1,5,1,0,0,0,1,0,0,0,0,,,,597.9706748999888,598.4664512000163,0.49577630002750084,,,,,-78,57:43,1,603.2902978999773,right,1,0.46330940001644194,None,,,,,,,,fff,1 - without skip,"60:40, 57:43","2.5s, 2.0s",2023-07-16_16h08.27.210,Rewa's Exp,2023.1.2,59.97674101728344,
2.5,Countdown_2.5s.mp4,green,red,left,Countdown_2.5s.jpg,7,0,7,0,,,,,1,2,6,2,0,0,0,1,0,0,0,0,,,,602.3649735000217,603.3331650000182,0.9681914999964647,,,,,-80,57:43,-2,607.6845074000303,right,0,0.9418353999499232,None,,,,,,,,fff,1 - without skip,"60:40, 57:43","2.5s, 2.0s",2023-07-16_16h08.27.210,Rewa's Exp,2023.1.2,59.97674101728344,
2.5,Countdown_2.5s.mp4,red,green,right,Countdown_2.5s.jpg,7,0,7,0,,,,,1,3,7,0,0,0,0,1,0,0,0,0,,,,607.2832422999782,607.9331879999954,0.6499457000172697,,,,,-79,57:43,1,612.6027769999928,right,1,0.6309728000196628,None,,,,,,,,fff,1 - without skip,"60:40, 57:43","2.5s, 2.0s",2023-07-16_16h08.27.210,Rewa's Exp,2023.1.2,59.97674101728344,
2.5,Countdown_2.5s.mp4,green,red,left,Countdown_2.5s.jpg,7,0,7,0,,,,,,,,,0,0,0,2,0,0,0,2,,,,,,,,,,,,,,,,,,,614.3987809999962,614.3987809999962,614.3987809999962,614.3987809999962,space,1.2915101000107825,,fff,1 - without skip,"60:40, 57:43","2.5s, 2.0s",2023-07-16_16h08.27.210,Rewa's Exp,2023.1.2,59.97674101728344,
2.5,Countdown_2.5s.mp4,red,green,right,Countdown_2.5s.jpg,8,0,8,0,0,0,0,0,,,,,0,0,0,2,0,0,0,2,,,,613.177015400026,613.516445700021,0.3394302999950014,right,1,0.3136704000062309,None,-78,60:40,1,,,,,,,,,,,,,fff,1 - without skip,"60:40, 57:43","2.5s, 2.0s",2023-07-16_16h08.27.210,Rewa's Exp,2023.1.2,59.97674101728344,
2,Countdown_2s.mp4,red,green,right,Countdown_2s.jpg,8,0,8,0,0,1,1,1,,,,,0,0,0,2,0,0,0,2,,,,617.4229161000112,617.4616017999942,0.03868569998303428,right,1,0.019390600034967065,None,-77,60:40,1,,,,,,,,,,,,,fff,1 - without skip,"60:40, 57:43","2.5s, 2.0s",2023-07-16_16h08.27.210,Rewa's Exp,2023.1.2,59.97674101728344,
2.5,Countdown_2.5s.mp4,green,red,left,Countdown_2.5s.jpg,8,0,8,0,0,2,2,2,,,,,0,0,0,2,0,0,0,2,,,,621.3749739999766,621.7163724999991,0.3413985000224784,right,0,0.3239845000207424,None,-79,60:40,-2,,,,,,,,,,,,,fff,1 - without skip,"60:40, 57:43","2.5s, 2.0s",2023-07-16_16h08.27.210,Rewa's Exp,2023.1.2,59.97674101728344,
2,Countdown_2s.mp4,green,red,left,Countdown_2s.jpg,8,0,8,0,0,3,3,3,,,,,0,0,0,2,0,0,0,2,,,,625.6160109000048,625.9168507999857,0.30083989998092875,left,1,0.27406209998298436,None,-78,60:40,1,,,,,,,,,,,,,fff,1 - without skip,"60:40, 57:43","2.5s, 2.0s",2023-07-16_16h08.27.210,Rewa's Exp,2023.1.2,59.97674101728344,
2.5,Countdown_2.5s.mp4,green,red,left,Countdown_2.5s.jpg,8,0,8,0,1,0,4,2,,,,,0,0,0,2,0,0,0,2,,,,629.8439553999924,630.2664795999881,0.4225241999956779,left,1,0.38970669999253005,None,-77,60:40,1,,,,,,,,,,,,,fff,1 - without skip,"60:40, 57:43","2.5s, 2.0s",2023-07-16_16h08.27.210,Rewa's Exp,2023.1.2,59.97674101728344,
2,Countdown_2s.mp4,red,green,right,Countdown_2s.jpg,8,0,8,0,1,1,5,1,,,,,0,0,0,2,0,0,0,2,,,,634.1592404000112,634.4997016999987,0.34046129998750985,left,0,0.3153955999878235,None,-79,60:40,-2,,,,,,,,,,,,,fff,1 - without skip,"60:40, 57:43","2.5s, 2.0s",2023-07-16_16h08.27.210,Rewa's Exp,2023.1.2,59.97674101728344,
2,Countdown_2s.mp4,green,red,left,Countdown_2s.jpg,8,0,8,0,1,2,6,3,,,,,0,0,0,2,0,0,0,2,,,,638.4211434000172,638.8830515000154,0.46190809999825433,left,1,0.4372649000142701,None,-78,60:40,1,,,,,,,,,,,,,fff,1 - without skip,"60:40, 57:43","2.5s, 2.0s",2023-07-16_16h08.27.210,Rewa's Exp,2023.1.2,59.97674101728344,
2.5,Countdown_2.5s.mp4,red,green,right,Countdown_2.5s.jpg,8,0,8,0,1,3,7,0,,,,,0,0,0,2,0,0,0,2,,,,642.7757748999866,643.1832478999859,0.40747299999929965,left,0,0.3785343000199646,None,-80,60:40,-2,,,,,,,,,,,,,fff,1 - without skip,"60:40, 57:43","2.5s, 2.0s",2023-07-16_16h08.27.210,Rewa's Exp,2023.1.2,59.97674101728344,
2.5,Countdown_2.5s.mp4,red,green,right,Countdown_2.5s.jpg,8,0,8,0,,,,,0,0,0,0,0,0,0,2,0,0,0,2,,,,647.1020929000224,647.6664828999783,0.5643899999558926,,,,,-82,57:43,-2,652.4216197999776,left,0,0.5412252999958582,None,,,,,,,,fff,1 - without skip,"60:40, 57:43","2.5s, 2.0s",2023-07-16_16h08.27.210,Rewa's Exp,2023.1.2,59.97674101728344,
2,Countdown_2s.mp4,red,green,right,Countdown_2s.jpg,8,0,8,0,,,,,0,1,1,1,0,0,0,2,0,0,0,2,,,,651.5827982000192,652.1500257999869,0.5672275999677368,,,,,-84,57:43,-2,656.9023498999886,left,0,0.5482522000093013,None,,,,,,,,fff,1 - without skip,"60:40, 57:43","2.5s, 2.0s",2023-07-16_16h08.27.210,Rewa's Exp,2023.1.2,59.97674101728344,
2.5,Countdown_2.5s.mp4,green,red,left,Countdown_2.5s.jpg,8,0,8,0,,,,,0,2,2,2,0,0,0,2,0,0,0,2,,,,656.0609578000149,656.6831913000206,0.6222335000056773,,,,,-83,57:43,1,661.3805124000064,left,1,0.5901947999955155,None,,,,,,,,fff,1 - without skip,"60:40, 57:43","2.5s, 2.0s",2023-07-16_16h08.27.210,Rewa's Exp,2023.1.2,59.97674101728344,
2,Countdown_2s.mp4,green,red,left,Countdown_2s.jpg,8,0,8,0,,,,,0,3,3,3,0,0,0,2,0,0,0,2,,,,660.603549899999,661.0832993999938,0.47974949999479577,,,,,-82,57:43,1,665.9230444999994,left,1,0.46238320000702515,None,,,,,,,,fff,1 - without skip,"60:40, 57:43","2.5s, 2.0s",2023-07-16_16h08.27.210,Rewa's Exp,2023.1.2,59.97674101728344,
2.5,Countdown_2.5s.mp4,red,green,right,Countdown_2.5s.jpg,8,0,8,0,,,,,1,0,4,0,0,0,0,2,0,0,0,2,,,,664.9989337999723,665.7331746999989,0.7342409000266343,,,,,-84,57:43,-2,670.3184610999888,left,0,0.7067521999706514,None,,,,,,,,fff,1 - without skip,"60:40, 57:43","2.5s, 2.0s",2023-07-16_16h08.27.210,Rewa's Exp,2023.1.2,59.97674101728344,
2,Countdown_2s.mp4,green,red,left,Countdown_2s.jpg,8,0,8,0,,,,,1,1,5,3,0,0,0,2,0,0,0,2,,,,669.6489490999957,670.3165906000067,0.6676415000110865,,,,,-83,57:43,1,674.9679225999862,left,1,0.6499174000346102,None,,,,,,,,fff,1 - without skip,"60:40, 57:43","2.5s, 2.0s",2023-07-16_16h08.27.210,Rewa's Exp,2023.1.2,59.97674101728344,
2.5,Countdown_2.5s.mp4,green,red,left,Countdown_2.5s.jpg,8,0,8,0,,,,,1,2,6,2,0,0,0,2,0,0,0,2,,,,674.2346077000257,674.9331187999924,0.6985110999667086,,,,,-82,57:43,1,679.554181399988,left,1,0.6799841999891214,None,,,,,,,,fff,1 - without skip,"60:40, 57:43","2.5s, 2.0s",2023-07-16_16h08.27.210,Rewa's Exp,2023.1.2,59.97674101728344,
2,Countdown_2s.mp4,red,green,right,Countdown_2s.jpg,8,0,8,0,,,,,1,3,7,1,0,0,0,2,0,0,0,2,,,,678.8240823000087,679.3166035999893,0.4925212999805808,,,,,-84,57:43,-2,684.1435579999816,left,0,0.4664575000060722,None,,,,,,,,fff,1 - without skip,"60:40, 57:43","2.5s, 2.0s",2023-07-16_16h08.27.210,Rewa's Exp,2023.1.2,59.97674101728344,
2,Countdown_2s.mp4,green,red,left,Countdown_2s.jpg,8,0,8,0,,,,,,,,,0,0,0,0,0,0,0,3,,,,,,,,,,,,,,,,,,,685.773010200006,685.773010200006,685.773010200006,685.773010200006,space,1.1964011999662034,,fff,1 - without skip,"60:40, 57:43","2.5s, 2.0s",2023-07-16_16h08.27.210,Rewa's Exp,2023.1.2,59.97674101728344,
2.5,Countdown_2.5s.mp4,red,green,right,Countdown_2.5s.jpg,9,0,9,0,0,0,0,0,,,,,0,0,0,0,0,0,0,3,,,,684.4692436999758,684.8334872000269,0.36424350005108863,right,1,0.3325290000066161,None,-83,60:40,1,,,,,,,,,,,,,fff,1 - without skip,"60:40, 57:43","2.5s, 2.0s",2023-07-16_16h08.27.210,Rewa's Exp,2023.1.2,59.97674101728344,
2,Countdown_2s.mp4,green,red,left,Countdown_2s.jpg,9,0,9,0,0,1,1,3,,,,,0,0,0,0,0,0,0,3,,,,688.7512878000271,689.1498090000241,0.3985211999970488,right,0,0.37121359998127446,None,-85,60:40,-2,,,,,,,,,,,,,fff,1 - without skip,"60:40, 57:43","2.5s, 2.0s",2023-07-16_16h08.27.210,Rewa's Exp,2023.1.2,59.97674101728344,
2,Countdown_2s.mp4,red,green,right,Countdown_2s.jpg,9,0,9,0,0,2,2,1,,,,,0,0,0,0,0,0,0,3,,,,693.053215300024,694.8998737999937,1.8466584999696352,right,1,1.822031700052321,None,-84,60:40,1,,,,,,,,,,,,,fff,1 - without skip,"60:40, 57:43","2.5s, 2.0s",2023-07-16_16h08.27.210,Rewa's Exp,2023.1.2,59.97674101728344,
2.5,Countdown_2.5s.mp4,green,red,left,Countdown_2.5s.jpg,9,0,9,0,0,3,3,2,,,,,0,0,0,0,0,0,0,3,,,,698.8503869000124,698.9503441000124,0.09995720000006258,right,0,0.07264319999376312,None,-86,60:40,-2,,,,,,,,,,,,,fff,1 - without skip,"60:40, 57:43","2.5s, 2.0s",2023-07-16_16h08.27.210,Rewa's Exp,2023.1.2,59.97674101728344,
2.5,Countdown_2.5s.mp4,green,red,left,Countdown_2.5s.jpg,9,0,9,0,1,0,4,2,,,,,0,0,0,0,0,0,0,3,,,,702.9196390999714,703.1837120000273,0.26407290005590767,right,0,0.2436075999867171,None,-88,60:40,-2,,,,,,,,,,,,,fff,1 - without skip,"60:40, 57:43","2.5s, 2.0s",2023-07-16_16h08.27.210,Rewa's Exp,2023.1.2,59.97674101728344,
2.5,Countdown_2.5s.mp4,red,green,right,Countdown_2.5s.jpg,9,0,9,0,1,1,5,0,,,,,0,0,0,0,0,0,0,3,,,,707.0775849000202,707.399945800018,0.3223608999978751,right,1,0.30081869999412447,None,-87,60:40,1,,,,,,,,,,,,,fff,1 - without skip,"60:40, 57:43","2.5s, 2.0s",2023-07-16_16h08.27.210,Rewa's Exp,2023.1.2,59.97674101728344,
2,Countdown_2s.mp4,green,red,left,Countdown_2s.jpg,9,0,9,0,1,2,6,3,,,,,0,0,0,0,0,0,0,3,,,,711.3118810000014,711.6333514999715,0.32147049997001886,right,0,0.2905144999967888,None,-89,60:40,-2,,,,,,,,,,,,,fff,1 - without skip,"60:40, 57:43","2.5s, 2.0s",2023-07-16_16h08.27.210,Rewa's Exp,2023.1.2,59.97674101728344,
2,Countdown_2s.mp4,red,green,right,Countdown_2s.jpg,9,0,9,0,1,3,7,1,,,,,0,0,0,0,0,0,0,3,,,,715.5431271999842,715.8333954000263,0.2902682000421919,left,0,0.2665280000073835,None,-91,60:40,-2,,,,,,,,,,,,,fff,1 - without skip,"60:40, 57:43","2.5s, 2.0s",2023-07-16_16h08.27.210,Rewa's Exp,2023.1.2,59.97674101728344,
2,Countdown_2s.mp4,green,red,left,Countdown_2s.jpg,9,0,9,0,,,,,0,0,0,3,0,0,0,0,0,0,0,3,,,,719.7438391000032,720.0666214000084,0.32278230000520125,,,,,-90,57:43,1,725.0634047000203,left,1,0.2899735000100918,None,,,,,,,,fff,1 - without skip,"60:40, 57:43","2.5s, 2.0s",2023-07-16_16h08.27.210,Rewa's Exp,2023.1.2,59.97674101728344,
2,Countdown_2s.mp4,red,green,right,Countdown_2s.jpg,9,0,9,0,,,,,0,1,1,1,0,0,0,0,0,0,0,3,,,,723.9915265999734,724.3167218000162,0.3251952000427991,,,,,-92,57:43,-2,729.3110216999776,left,0,0.3069470999762416,None,,,,,,,,fff,1 - without skip,"60:40, 57:43","2.5s, 2.0s",2023-07-16_16h08.27.210,Rewa's Exp,2023.1.2,59.97674101728344,
2.5,Countdown_2.5s.mp4,green,red,left,Countdown_2.5s.jpg,9,0,9,0,,,,,0,2,2,2,0,0,0,0,0,0,0,3,,,,728.2249022999895,728.6001764999819,0.3752741999924183,,,,,-94,57:43,-2,733.5444617000176,right,0,0.3456051000393927,None,,,,,,,,fff,1 - without skip,"60:40, 57:43","2.5s, 2.0s",2023-07-16_16h08.27.210,Rewa's Exp,2023.1.2,59.97674101728344,
2.5,Countdown_2.5s.mp4,red,green,right,Countdown_2.5s.jpg,9,0,9,0,,,,,0,3,3,0,0,0,0,0,0,0,0,3,,,,732.4968806999968,733.0668020999874,0.5699213999905623,,,,,-96,57:43,-2,737.8164335999754,left,0,0.5373478999827057,None,,,,,,,,fff,1 - without skip,"60:40, 57:43","2.5s, 2.0s",2023-07-16_16h08.27.210,Rewa's Exp,2023.1.2,59.97674101728344,
2,Countdown_2s.mp4,red,green,right,Countdown_2s.jpg,9,0,9,0,,,,,1,0,4,1,0,0,0,0,0,0,0,3,,,,737.0170094000059,737.3502005999908,0.3331911999848671,,,,,-95,57:43,1,742.3365394999855,right,1,0.3132311999797821,None,,,,,,,,fff,1 - without skip,"60:40, 57:43","2.5s, 2.0s",2023-07-16_16h08.27.210,Rewa's Exp,2023.1.2,59.97674101728344,
2.5,Countdown_2.5s.mp4,green,red,left,Countdown_2.5s.jpg,9,0,9,0,,,,,1,1,5,2,0,0,0,0,0,0,0,3,,,,741.2936022999929,741.7333318999736,0.43972959998063743,,,,,-97,57:43,-2,746.6130841000122,right,0,0.42122469999594614,None,,,,,,,,fff,1 - without skip,"60:40, 57:43","2.5s, 2.0s",2023-07-16_16h08.27.210,Rewa's Exp,2023.1.2,59.97674101728344,
2.5,Countdown_2.5s.mp4,red,green,right,Countdown_2.5s.jpg,9,0,9,0,,,,,1,2,6,0,0,0,0,0,0,0,0,3,,,,745.6609234000207,745.9000347999972,0.23911139997653663,,,,,-96,57:43,1,750.9804639000213,right,1,0.21475300000747666,None,,,,,,,,fff,1 - without skip,"60:40, 57:43","2.5s, 2.0s",2023-07-16_16h08.27.210,Rewa's Exp,2023.1.2,59.97674101728344,
2,Countdown_2s.mp4,green,red,left,Countdown_2s.jpg,9,0,9,0,,,,,1,3,7,3,0,0,0,0,0,0,0,3,,,,749.8149365999852,750.0667660000036,0.2518294000183232,,,,,-98,57:43,-2,755.1344856999931,right,0,0.21906889998354018,None,,,,,,,,fff,1 - without skip,"60:40, 57:43","2.5s, 2.0s",2023-07-16_16h08.27.210,Rewa's Exp,2023.1.2,59.97674101728344,
2.5,Countdown_2.5s.mp4,red,green,right,Countdown_2.5s.jpg,9,0,9,0,,,,,,,,,0,0,0,0,0,0,0,0,,,,,,,,,,,,,,,,,,,756.5308967999881,756.5308967999881,756.5308967999881,756.5308967999881,space,1.1274008000036702,,fff,1 - without skip,"60:40, 57:43","2.5s, 2.0s",2023-07-16_16h08.27.210,Rewa's Exp,2023.1.2,59.97674101728344,
2,Countdown_2s.mp4,red,green,right,Countdown_2s.jpg,10,0,10,0,0,0,0,1,,,,,0,0,0,0,0,0,0,0,,,,755.1761926999898,755.5501868000138,0.37399410002399236,right,1,0.3554225999978371,None,-97,60:40,1,,,,,,,,,,,,,fff,1 - without skip,"60:40, 57:43","2.5s, 2.0s",2023-07-16_16h08.27.210,Rewa's Exp,2023.1.2,59.97674101728344,
2.5,Countdown_2.5s.mp4,red,green,right,Countdown_2.5s.jpg,10,0,10,0,0,1,1,0,,,,,0,0,0,0,0,0,0,0,,,,759.4719143999973,759.766890799976,0.2949763999786228,right,1,0.26657759997760877,None,-96,60:40,1,,,,,,,,,,,,,fff,1 - without skip,"60:40, 57:43","2.5s, 2.0s",2023-07-16_16h08.27.210,Rewa's Exp,2023.1.2,59.97674101728344,
2.5,Countdown_2.5s.mp4,green,red,left,Countdown_2.5s.jpg,10,0,10,0,0,2,2,2,,,,,0,0,0,0,0,0,0,0,,,,763.6707448000088,763.8331643000129,0.1624195000040345,right,0,0.13991450000321493,None,-98,60:40,-2,,,,,,,,,,,,,fff,1 - without skip,"60:40, 57:43","2.5s, 2.0s",2023-07-16_16h08.27.210,Rewa's Exp,2023.1.2,59.97674101728344,
2,Countdown_2s.mp4,green,red,left,Countdown_2s.jpg,10,0,10,0,0,3,3,3,,,,,0,0,0,0,0,0,0,0,,,,767.7487740999786,767.8833459999878,0.13457190000917763,right,0,0.10993400000734255,None,-100,60:40,-2,,,,,,,,,,,,,fff,1 - without skip,"60:40, 57:43","2.5s, 2.0s",2023-07-16_16h08.27.210,Rewa's Exp,2023.1.2,59.97674101728344,
2.5,Countdown_2.5s.mp4,green,red,left,Countdown_2.5s.jpg,10,0,10,0,1,0,4,2,,,,,0,0,0,0,0,0,0,0,,,,771.7897279000026,771.8668271999923,0.07709929998964071,right,0,0.05301020003389567,None,-102,60:40,-2,,,,,,,,,,,,,fff,1 - without skip,"60:40, 57:43","2.5s, 2.0s",2023-07-16_16h08.27.210,Rewa's Exp,2023.1.2,59.97674101728344,
2,Countdown_2s.mp4,red,green,right,Countdown_2s.jpg,10,0,10,0,1,1,5,1,,,,,0,0,0,0,0,0,0,0,,,,775.8272746999864,776.000256099971,0.17298139998456463,right,1,0.1507331999600865,None,-101,60:40,1,,,,,,,,,,,,,fff,1 - without skip,"60:40, 57:43","2.5s, 2.0s",2023-07-16_16h08.27.210,Rewa's Exp,2023.1.2,59.97674101728344,
2,Countdown_2s.mp4,green,red,left,Countdown_2s.jpg,10,0,10,0,1,2,6,3,,,,,0,0,0,0,0,0,0,0,,,,779.9461276999791,780.1336840000004,0.18755630002124235,right,0,0.16871410002931952,None,-103,60:40,-2,,,,,,,,,,,,,fff,1 - without skip,"60:40, 57:43","2.5s, 2.0s",2023-07-16_16h08.27.210,Rewa's Exp,2023.1.2,59.97674101728344,
2.5,Countdown_2.5s.mp4,red,green,right,Countdown_2.5s.jpg,10,0,10,0,1,3,7,0,,,,,0,0,0,0,0,0,0,0,,,,784.0790442000143,784.2000668999972,0.1210226999828592,right,1,0.10012540000025183,None,-102,60:40,1,,,,,,,,,,,,,fff,1 - without skip,"60:40, 57:43","2.5s, 2.0s",2023-07-16_16h08.27.210,Rewa's Exp,2023.1.2,59.97674101728344,
2,Countdown_2s.mp4,green,red,left,Countdown_2s.jpg,10,0,10,0,,,,,0,0,0,3,0,0,0,0,0,0,0,0,,,,788.128696699976,788.3503163999994,0.22161970002343878,,,,,-104,57:43,-2,793.448238299985,right,0,0.20196799997938797,None,,,,,,,,fff,1 - without skip,"60:40, 57:43","2.5s, 2.0s",2023-07-16_16h08.27.210,Rewa's Exp,2023.1.2,59.97674101728344,
2.5,Countdown_2.5s.mp4,green,red,left,Countdown_2.5s.jpg,10,0,10,0,,,,,0,1,1,2,0,0,0,0,0,0,0,0,,,,792.2363258000114,792.5506050999975,0.31427929998608306,,,,,-106,57:43,-2,797.5558127000113,right,0,0.2862027000519447,None,,,,,,,,fff,1 - without skip,"60:40, 57:43","2.5s, 2.0s",2023-07-16_16h08.27.210,Rewa's Exp,2023.1.2,59.97674101728344,
2.5,Countdown_2.5s.mp4,red,green,right,Countdown_2.5s.jpg,10,0,10,0,,,,,0,2,2,0,0,0,0,0,0,0,0,0,,,,796.521565300005,796.616800400021,0.09523510001599789,,,,,-105,57:43,1,801.8411031999858,right,1,0.06538200000068173,None,,,,,,,,fff,1 - without skip,"60:40, 57:43","2.5s, 2.0s",2023-07-16_16h08.27.210,Rewa's Exp,2023.1.2,59.97674101728344,
2,Countdown_2s.mp4,red,green,right,Countdown_2s.jpg,10,0,10,0,,,,,0,3,3,1,0,0,0,0,0,0,0,0,,,,800.5211260999786,800.6168972000014,0.09577110002283007,,,,,-104,57:43,1,805.8406710000127,right,1,0.07423860003473237,None,,,,,,,,fff,1 - without skip,"60:40, 57:43","2.5s, 2.0s",2023-07-16_16h08.27.210,Rewa's Exp,2023.1.2,59.97674101728344,
2.5,Countdown_2.5s.mp4,red,green,right,Countdown_2.5s.jpg,10,0,10,0,,,,,1,0,4,0,0,0,0,0,0,0,0,0,,,,804.5318421000266,804.6334433999727,0.10160129994619638,,,,,-103,57:43,1,809.8513918999815,right,1,0.07880020001903176,None,,,,,,,,fff,1 - without skip,"60:40, 57:43","2.5s, 2.0s",2023-07-16_16h08.27.210,Rewa's Exp,2023.1.2,59.97674101728344,
2.5,Countdown_2.5s.mp4,green,red,left,Countdown_2.5s.jpg,10,0,10,0,,,,,1,1,5,2,0,0,0,0,0,0,0,0,,,,808.5188493999885,808.700456999999,0.18160760001046583,,,,,-105,57:43,-2,813.8383387000067,right,0,0.1549728000536561,None,,,,,,,,fff,1 - without skip,"60:40, 57:43","2.5s, 2.0s",2023-07-16_16h08.27.210,Rewa's Exp,2023.1.2,59.97674101728344,
2,Countdown_2s.mp4,red,green,right,Countdown_2s.jpg,10,0,10,0,,,,,1,2,6,1,0,0,0,0,0,0,0,0,,,,812.596813799988,812.7003096999833,0.10349589999532327,,,,,-104,57:43,1,817.9163730000146,right,1,0.08605719998013228,None,,,,,,,,fff,1 - without skip,"60:40, 57:43","2.5s, 2.0s",2023-07-16_16h08.27.210,Rewa's Exp,2023.1.2,59.97674101728344,
2,Countdown_2s.mp4,green,red,left,Countdown_2s.jpg,10,0,10,0,,,,,1,3,7,3,0,0,0,0,0,0,0,0,,,,816.5918941000127,816.8000938000041,0.20819969999138266,,,,,-106,57:43,-2,821.9113853999879,right,0,0.1870766999782063,None,,,,,,,,fff,1 - without skip,"60:40, 57:43","2.5s, 2.0s",2023-07-16_16h08.27.210,Rewa's Exp,2023.1.2,59.97674101728344,
2.5,Countdown_2.5s.mp4,red,green,right,Countdown_2.5s.jpg,10,0,10,0,,,,,,,,,0,0,0,0,0,0,0,0,,,,,,,,,,,,,,,,,,,823.2674197999877,823.2674197999877,823.2674197999877,823.2674197999877,space,13.775265899952501,,fff,1 - without skip,"60:40, 57:43","2.5s, 2.0s",2023-07-16_16h08.27.210,Rewa's Exp,2023.1.2,59.97674101728344,
2.5,Countdown_2.5s.mp4,red,green,right,Countdown_2.5s.jpg,11,0,11,0,0,0,0,0,,,,,0,0,0,0,0,0,0,0,,,,834.5287026999868,834.6845261999988,0.1558235000120476,right,1,0.1298337000189349,None,-105,60:40,1,,,,,,,,,,,,,fff,1 - without skip,"60:40, 57:43","2.5s, 2.0s",2023-07-16_16h08.27.210,Rewa's Exp,2023.1.2,59.97674101728344,
2,Countdown_2s.mp4,green,red,left,Countdown_2s.jpg,11,0,11,0,0,1,1,3,,,,,0,0,0,0,0,0,0,0,,,,838.6677252000081,838.7427901999908,0.07506499998271465,right,0,0.05588030000217259,None,-107,60:40,-2,,,,,,,,,,,,,fff,1 - without skip,"60:40, 57:43","2.5s, 2.0s",2023-07-16_16h08.27.210,Rewa's Exp,2023.1.2,59.97674101728344,
2.5,Countdown_2.5s.mp4,green,red,left,Countdown_2.5s.jpg,11,0,11,0,0,2,2,2,,,,,0,0,0,0,0,0,0,0,,,,842.6916745000053,842.866935099999,0.17526059999363497,right,0,0.15825910004787147,None,-109,60:40,-2,,,,,,,,,,,,,fff,1 - without skip,"60:40, 57:43","2.5s, 2.0s",2023-07-16_16h08.27.210,Rewa's Exp,2023.1.2,59.97674101728344,
2,Countdown_2s.mp4,red,green,right,Countdown_2s.jpg,11,0,11,0,0,3,3,1,,,,,0,0,0,0,0,0,0,0,,,,846.7710379000055,846.9500828000018,0.17904489999637008,right,1,0.15100120002171025,None,-108,60:40,1,,,,,,,,,,,,,fff,1 - without skip,"60:40, 57:43","2.5s, 2.0s",2023-07-16_16h08.27.210,Rewa's Exp,2023.1.2,59.97674101728344,
2,Countdown_2s.mp4,green,red,left,Countdown_2s.jpg,11,0,11,0,1,0,4,3,,,,,0,0,0,0,0,0,0,0,,,,850.8793975000153,851.0335600000108,0.15416249999543652,right,0,0.12370820000069216,None,-110,60:40,-2,,,,,,,,,,,,,fff,1 - without skip,"60:40, 57:43","2.5s, 2.0s",2023-07-16_16h08.27.210,Rewa's Exp,2023.1.2,59.97674101728344,
2.5,Countdown_2.5s.mp4,green,red,left,Countdown_2.5s.jpg,11,0,11,0,1,1,5,2,,,,,0,0,0,0,0,0,0,0,,,,854.9473939000163,855.0835829999996,0.1361890999833122,right,0,0.11145119997672737,None,-112,60:40,-2,,,,,,,,,,,,,fff,1 - without skip,"60:40, 57:43","2.5s, 2.0s",2023-07-16_16h08.27.210,Rewa's Exp,2023.1.2,59.97674101728344,
2.5,Countdown_2.5s.mp4,red,green,right,Countdown_2.5s.jpg,11,0,11,0,1,2,6,0,,,,,0,0,0,0,0,0,0,0,,,,858.9909262000001,859.1335705000092,0.14264430000912398,right,1,0.12389020004775375,None,-111,60:40,1,,,,,,,,,,,,,fff,1 - without skip,"60:40, 57:43","2.5s, 2.0s",2023-07-16_16h08.27.210,Rewa's Exp,2023.1.2,59.97674101728344,
2,Countdown_2s.mp4,red,green,right,Countdown_2s.jpg,11,0,11,0,1,3,7,1,,,,,0,0,0,0,0,0,0,0,,,,863.025467599975,863.267024700006,0.24155710003105924,right,1,0.2088725000503473,None,-110,60:40,1,,,,,,,,,,,,,fff,1 - without skip,"60:40, 57:43","2.5s, 2.0s",2023-07-16_16h08.27.210,Rewa's Exp,2023.1.2,59.97674101728344,
2,Countdown_2s.mp4,red,green,right,Countdown_2s.jpg,11,0,11,0,,,,,0,0,0,1,0,0,0,0,0,0,0,0,,,,867.2014436000027,867.2540807999903,0.05263719998765737,,,,,-109,57:43,1,872.5208996000001,right,1,0.032679100055247545,None,,,,,,,,fff,1 - without skip,"60:40, 57:43","2.5s, 2.0s",2023-07-16_16h08.27.210,Rewa's Exp,2023.1.2,59.97674101728344,
2.5,Countdown_2.5s.mp4,red,green,right,Countdown_2.5s.jpg,11,0,11,0,,,,,0,1,1,0,0,0,0,0,0,0,0,0,,,,871.1929953999934,871.3002504999749,0.10725509998155758,,,,,-108,57:43,1,876.5124891999876,right,1,0.08186500001465902,None,,,,,,,,fff,1 - without skip,"60:40, 57:43","2.5s, 2.0s",2023-07-16_16h08.27.210,Rewa's Exp,2023.1.2,59.97674101728344,
2,Countdown_2s.mp4,green,red,left,Countdown_2s.jpg,11,0,11,0,,,,,0,2,2,3,0,0,0,0,0,0,0,0,,,,875.2222260999843,875.5003066000063,0.27808050002204254,,,,,-110,57:43,-2,880.5417652000324,right,0,0.2516673000063747,None,,,,,,,,fff,1 - without skip,"60:40, 57:43","2.5s, 2.0s",2023-07-16_16h08.27.210,Rewa's Exp,2023.1.2,59.97674101728344,
2.5,Countdown_2.5s.mp4,green,red,left,Countdown_2.5s.jpg,11,0,11,0,,,,,0,3,3,2,0,0,0,0,0,0,0,0,,,,879.4246667000116,879.6336221999954,0.20895549998385832,,,,,-112,57:43,-2,884.7441231000121,right,0,0.18613840005127713,None,,,,,,,,fff,1 - without skip,"60:40, 57:43","2.5s, 2.0s",2023-07-16_16h08.27.210,Rewa's Exp,2023.1.2,59.97674101728344,
2.5,Countdown_2.5s.mp4,green,red,left,Countdown_2.5s.jpg,11,0,11,0,,,,,1,0,4,2,0,0,0,0,0,0,0,0,,,,883.5735945000197,883.7673137999955,0.19371929997578263,,,,,-114,57:43,-2,888.8933147999924,right,0,0.1723342000041157,None,,,,,,,,fff,1 - without skip,"60:40, 57:43","2.5s, 2.0s",2023-07-16_16h08.27.210,Rewa's Exp,2023.1.2,59.97674101728344,
2,Countdown_2s.mp4,green,red,left,Countdown_2s.jpg,11,0,11,0,,,,,1,1,5,3,0,0,0,0,0,0,0,0,,,,887.7321550999768,887.9838148999843,0.2516598000074737,,,,,-116,57:43,-2,893.0515967999818,right,0,0.23051820002729073,None,,,,,,,,fff,1 - without skip,"60:40, 57:43","2.5s, 2.0s",2023-07-16_16h08.27.210,Rewa's Exp,2023.1.2,59.97674101728344,
2,Countdown_2s.mp4,red,green,right,Countdown_2s.jpg,11,0,11,0,,,,,1,2,6,1,0,0,0,0,0,0,0,0,,,,891.9325656999717,892.0169762999867,0.08441060001496226,,,,,-115,57:43,1,897.2521104000043,right,1,0.05321799998637289,None,,,,,,,,fff,1 - without skip,"60:40, 57:43","2.5s, 2.0s",2023-07-16_16h08.27.210,Rewa's Exp,2023.1.2,59.97674101728344,
2.5,Countdown_2.5s.mp4,red,green,right,Countdown_2.5s.jpg,11,0,11,0,,,,,1,3,7,0,0,0,0,0,0,0,0,0,,,,895.9338043999742,896.2001852000249,0.2663808000506833,,,,,-114,57:43,1,901.2532431000145,right,1,0.23602050001500174,None,,,,,,,,fff,1 - without skip,"60:40, 57:43","2.5s, 2.0s",2023-07-16_16h08.27.210,Rewa's Exp,2023.1.2,59.97674101728344,
2,Countdown_2s.mp4,red,green,right,Countdown_2s.jpg,11,0,11,0,,,,,,,,,0,0,0,1,0,0,0,1,,,,,,,,,,,,,,,,,,,902.6487791999825,902.6487791999825,902.6487791999825,902.6487791999825,space,1.377919299993664,,fff,1 - without skip,"60:40, 57:43","2.5s, 2.0s",2023-07-16_16h08.27.210,Rewa's Exp,2023.1.2,59.97674101728344,
2.5,Countdown_2.5s.mp4,green,red,left,Countdown_2.5s.jpg,12,0,12,0,0,0,0,2,,,,,0,0,0,1,0,0,0,1,,,,901.4843203999917,901.6667871000245,0.18246670003281906,right,0,0.1501270000007935,None,-116,60:40,-2,,,,,,,,,,,,,fff,1 - without skip,"60:40, 57:43","2.5s, 2.0s",2023-07-16_16h08.27.210,Rewa's Exp,2023.1.2,59.97674101728344,
2,Countdown_2s.mp4,red,green,right,Countdown_2s.jpg,12,0,12,0,0,1,1,1,,,,,0,0,0,1,0,0,0,1,,,,905.5662564000231,905.7002827000106,0.13402629998745397,right,1,0.11677750002127141,None,-115,60:40,1,,,,,,,,,,,,,fff,1 - without skip,"60:40, 57:43","2.5s, 2.0s",2023-07-16_16h08.27.210,Rewa's Exp,2023.1.2,59.97674101728344,
2,Countdown_2s.mp4,green,red,left,Countdown_2s.jpg,12,0,12,0,0,2,2,3,,,,,0,0,0,1,0,0,0,1,,,,909.6005532999989,909.7170506999828,0.11649739998392761,right,0,0.09088430000701919,None,-117,60:40,-2,,,,,,,,,,,,,fff,1 - without skip,"60:40, 57:43","2.5s, 2.0s",2023-07-16_16h08.27.210,Rewa's Exp,2023.1.2,59.97674101728344,
2.5,Countdown_2.5s.mp4,red,green,right,Countdown_2.5s.jpg,12,0,12,0,0,3,3,0,,,,,0,0,0,1,0,0,0,1,,,,913.6291852999711,913.6671071000164,0.03792180004529655,right,1,0.013647499959915876,None,-116,60:40,1,,,,,,,,,,,,,fff,1 - without skip,"60:40, 57:43","2.5s, 2.0s",2023-07-16_16h08.27.210,Rewa's Exp,2023.1.2,59.97674101728344,
2,Countdown_2s.mp4,green,red,left,Countdown_2s.jpg,12,0,12,0,1,0,4,3,,,,,0,0,0,1,0,0,0,1,,,,917.595051500015,917.7004457999719,0.10539429995696992,right,0,0.08787869999650866,None,-118,60:40,-2,,,,,,,,,,,,,fff,1 - without skip,"60:40, 57:43","2.5s, 2.0s",2023-07-16_16h08.27.210,Rewa's Exp,2023.1.2,59.97674101728344,
2.5,Countdown_2.5s.mp4,red,green,right,Countdown_2.5s.jpg,12,0,12,0,1,1,5,0,,,,,0,0,0,1,0,0,0,1,,,,921.6275490000262,922.2669816000271,0.6394326000008732,right,1,0.606481300026644,None,-117,60:40,1,,,,,,,,,,,,,fff,1 - without skip,"60:40, 57:43","2.5s, 2.0s",2023-07-16_16h08.27.210,Rewa's Exp,2023.1.2,59.97674101728344,
2.5,Countdown_2.5s.mp4,green,red,left,Countdown_2.5s.jpg,12,0,12,0,1,2,6,2,,,,,0,0,0,1,0,0,0,1,,,,926.1859872000059,926.6338140000007,0.44782679999480024,right,0,0.41647170000942424,None,-119,60:40,-2,,,,,,,,,,,,,fff,1 - without skip,"60:40, 57:43","2.5s, 2.0s",2023-07-16_16h08.27.210,Rewa's Exp,2023.1.2,59.97674101728344,
2,Countdown_2s.mp4,red,green,right,Countdown_2s.jpg,12,0,12,0,1,3,7,1,,,,,0,0,0,1,0,0,0,1,,,,930.5394210999948,930.6671547999722,0.12773369997739792,left,0,0.1107653999933973,None,-121,60:40,-2,,,,,,,,,,,,,fff,1 - without skip,"60:40, 57:43","2.5s, 2.0s",2023-07-16_16h08.27.210,Rewa's Exp,2023.1.2,59.97674101728344,
2.5,Countdown_2.5s.mp4,red,green,right,Countdown_2.5s.jpg,12,0,12,0,,,,,0,0,0,0,0,0,0,1,0,0,0,1,,,,934.5756098999991,934.6020053999964,0.026395499997306615,,,,,-123,57:43,-2,939.8950970000005,left,0,0.0027564000338315964,None,,,,,,,,fff,1 - without skip,"60:40, 57:43","2.5s, 2.0s",2023-07-16_16h08.27.210,Rewa's Exp,2023.1.2,59.97674101728344,
2,Countdown_2s.mp4,green,red,left,Countdown_2s.jpg,12,0,12,0,,,,,0,1,1,3,0,0,0,1,0,0,0,1,,,,938.5000791000202,938.5675726999762,0.06749359995592386,,,,,-122,57:43,1,943.8195867000031,left,1,0.046662499953527004,None,,,,,,,,fff,1 - without skip,"60:40, 57:43","2.5s, 2.0s",2023-07-16_16h08.27.210,Rewa's Exp,2023.1.2,59.97674101728344,
2,Countdown_2s.mp4,red,green,right,Countdown_2s.jpg,12,0,12,0,,,,,0,2,2,1,0,0,0,1,0,0,0,1,,,,942.505006499996,942.5438114000135,0.03880490001756698,,,,,-124,57:43,-2,947.8245460999897,left,0,0.01731720002135262,None,,,,,,,,fff,1 - without skip,"60:40, 57:43","2.5s, 2.0s",2023-07-16_16h08.27.210,Rewa's Exp,2023.1.2,59.97674101728344,
2.5,Countdown_2.5s.mp4,green,red,left,Countdown_2.5s.jpg,12,0,12,0,,,,,0,3,3,2,0,0,0,1,0,0,0,1,,,,946.4620307000005,946.6505867000087,0.1885560000082478,,,,,-123,57:43,1,951.7815741000231,left,1,0.16509090003091842,None,,,,,,,,fff,1 - without skip,"60:40, 57:43","2.5s, 2.0s",2023-07-16_16h08.27.210,Rewa's Exp,2023.1.2,59.97674101728344,
2.5,Countdown_2.5s.mp4,green,red,left,Countdown_2.5s.jpg,12,0,12,0,,,,,1,0,4,2,0,0,0,1,0,0,0,1,,,,950.5944734999794,950.7169789000181,0.12250540003878996,,,,,-122,57:43,1,955.9140056000324,left,1,0.09650919999694452,None,,,,,,,,fff,1 - without skip,"60:40, 57:43","2.5s, 2.0s",2023-07-16_16h08.27.210,Rewa's Exp,2023.1.2,59.97674101728344,
2.5,Countdown_2.5s.mp4,red,green,right,Countdown_2.5s.jpg,12,0,12,0,,,,,1,1,5,0,0,0,0,1,0,0,0,1,,,,954.6303792999825,954.7505324999802,0.12015319999773055,,,,,-124,57:43,-2,959.9499254000257,left,0,0.10017679998418316,None,,,,,,,,fff,1 - without skip,"60:40, 57:43","2.5s, 2.0s",2023-07-16_16h08.27.210,Rewa's Exp,2023.1.2,59.97674101728344,
2,Countdown_2s.mp4,red,green,right,Countdown_2s.jpg,12,0,12,0,,,,,1,2,6,1,0,0,0,1,0,0,0,1,,,,958.6756939999759,958.9003505000146,0.22465650003869087,,,,,-126,57:43,-2,963.9952172000194,left,0,0.19854750001104549,None,,,,,,,,fff,1 - without skip,"60:40, 57:43","2.5s, 2.0s",2023-07-16_16h08.27.210,Rewa's Exp,2023.1.2,59.97674101728344,
2,Countdown_2s.mp4,green,red,left,Countdown_2s.jpg,12,0,12,0,,,,,1,3,7,3,0,0,0,1,0,0,0,1,,,,962.7871622000239,962.9500461000134,0.1628838999895379,,,,,-128,57:43,-2,968.1067098000203,right,0,0.14392330002738163,None,,,,,,,,fff,1 - without skip,"60:40, 57:43","2.5s, 2.0s",2023-07-16_16h08.27.210,Rewa's Exp,2023.1.2,59.97674101728344,
2.5,Countdown_2.5s.mp4,red,green,right,Countdown_2.5s.jpg,12,0,12,0,,,,,,,,,0,0,0,0,0,0,0,0,,,,,,,,,,,,,,,,,,,969.4232916000183,969.4232916000183,969.4232916000183,969.4232916000183,space,1.3390783999930136,,fff,1 - without skip,"60:40, 57:43","2.5s, 2.0s",2023-07-16_16h08.27.210,Rewa's Exp,2023.1.2,59.97674101728344,
2,Countdown_2s.mp4,red,green,right,Countdown_2s.jpg,13,0,13,0,0,0,0,1,,,,,0,0,0,0,0,0,0,0,,,,968.2635650999728,968.4177269000211,0.15416180004831403,right,1,0.13116710004396737,None,-127,60:40,1,,,,,,,,,,,,,fff,1 - without skip,"60:40, 57:43","2.5s, 2.0s",2023-07-16_16h08.27.210,Rewa's Exp,2023.1.2,59.97674101728344,
2.5,Countdown_2.5s.mp4,green,red,left,Countdown_2.5s.jpg,13,0,13,0,0,1,1,2,,,,,0,0,0,0,0,0,0,0,,,,972.347619600012,972.4290321000153,0.08141250000335276,right,0,0.04666910000378266,None,-129,60:40,-2,,,,,,,,,,,,,fff,1 - without skip,"60:40, 57:43","2.5s, 2.0s",2023-07-16_16h08.27.210,Rewa's Exp,2023.1.2,59.97674101728344,
2.5,Countdown_2.5s.mp4,red,green,right,Countdown_2.5s.jpg,13,0,13,0,0,2,2,0,,,,,0,0,0,0,0,0,0,0,,,,976.3372746999958,976.450667200028,0.11339250003220513,right,1,0.08074419997865334,None,-128,60:40,1,,,,,,,,,,,,,fff,1 - without skip,"60:40, 57:43","2.5s, 2.0s",2023-07-16_16h08.27.210,Rewa's Exp,2023.1.2,59.97674101728344,
2,Countdown_2s.mp4,green,red,left,Countdown_2s.jpg,13,0,13,0,0,3,3,3,,,,,0,0,0,0,0,0,0,0,,,,980.4212977999705,980.4732067000004,0.051908900029957294,right,0,0.037781900027766824,None,-130,60:40,-2,,,,,,,,,,,,,fff,1 - without skip,"60:40, 57:43","2.5s, 2.0s",2023-07-16_16h08.27.210,Rewa's Exp,2023.1.2,59.97674101728344,
2.5,Countdown_2.5s.mp4,green,red,left,Countdown_2.5s.jpg,13,0,13,0,1,0,4,2,,,,,0,0,0,0,0,0,0,0,,,,984.3721640000003,984.5039012000198,0.13173720001941547,right,0,0.10976089996984228,None,-132,60:40,-2,,,,,,,,,,,,,fff,1 - without skip,"60:40, 57:43","2.5s, 2.0s",2023-07-16_16h08.27.210,Rewa's Exp,2023.1.2,59.97674101728344,
2,Countdown_2s.mp4,green,red,left,Countdown_2s.jpg,13,0,13,0,1,1,5,3,,,,,0,0,0,0,0,0,0,0,,,,988.4092316000024,988.6011756000225,0.19194400002015755,right,0,0.16106350003974512,None,-134,60:40,-2,,,,,,,,,,,,,fff,1 - without skip,"60:40, 57:43","2.5s, 2.0s",2023-07-16_16h08.27.210,Rewa's Exp,2023.1.2,59.97674101728344,
2.5,Countdown_2.5s.mp4,red,green,right,Countdown_2.5s.jpg,13,0,13,0,1,2,6,0,,,,,0,0,0,0,0,0,0,0,,,,992.560031800007,992.8504395000055,0.29040769999846816,right,1,0.2676943999831565,None,-133,60:40,1,,,,,,,,,,,,,fff,1 - without skip,"60:40, 57:43","2.5s, 2.0s",2023-07-16_16h08.27.210,Rewa's Exp,2023.1.2,59.97674101728344,
2,Countdown_2s.mp4,red,green,right,Countdown_2s.jpg,13,0,13,0,1,3,7,1,,,,,0,0,0,0,0,0,0,0,,,,996.7827653000131,996.836483000021,0.053717700007837266,right,1,0.027796899958048016,None,-132,60:40,1,,,,,,,,,,,,,fff,1 - without skip,"60:40, 57:43","2.5s, 2.0s",2023-07-16_16h08.27.210,Rewa's Exp,2023.1.2,59.97674101728344,
2,Countdown_2s.mp4,red,green,right,Countdown_2s.jpg,13,0,13,0,,,,,0,0,0,1,0,0,0,0,0,0,0,0,,,,1000.7348923999816,1000.8672963000135,0.1324039000319317,,,,,-131,57:43,1,1006.0544466000283,right,1,0.10868699999991804,None,,,,,,,,fff,1 - without skip,"60:40, 57:43","2.5s, 2.0s",2023-07-16_16h08.27.210,Rewa's Exp,2023.1.2,59.97674101728344,
2.5,Countdown_2.5s.mp4,red,green,right,Countdown_2.5s.jpg,13,0,13,0,,,,,0,1,1,0,0,0,0,0,0,0,0,0,,,,1004.8024552999996,1005.1838024000172,0.3813471000175923,,,,,-130,57:43,1,1010.1219137000153,right,1,0.36090929998317733,None,,,,,,,,fff,1 - without skip,"60:40, 57:43","2.5s, 2.0s",2023-07-16_16h08.27.210,Rewa's Exp,2023.1.2,59.97674101728344,
2.5,Countdown_2.5s.mp4,green,red,left,Countdown_2.5s.jpg,13,0,13,0,,,,,0,2,2,2,0,0,0,0,0,0,0,0,,,,1009.0731949000037,1009.2518444000161,0.17864950001239777,,,,,-132,57:43,-2,1014.3926591000054,right,0,0.1530293000396341,None,,,,,,,,fff,1 - without skip,"60:40, 57:43","2.5s, 2.0s",2023-07-16_16h08.27.210,Rewa's Exp,2023.1.2,59.97674101728344,
2,Countdown_2s.mp4,green,red,left,Countdown_2s.jpg,13,0,13,0,,,,,0,3,3,3,0,0,0,0,0,0,0,0,,,,1013.1490242999862,1013.4009033999755,0.2518790999893099,,,,,-134,57:43,-2,1018.4685079000192,right,0,0.22954889998072758,None,,,,,,,,fff,1 - without skip,"60:40, 57:43","2.5s, 2.0s",2023-07-16_16h08.27.210,Rewa's Exp,2023.1.2,59.97674101728344,
2.5,Countdown_2.5s.mp4,red,green,right,Countdown_2.5s.jpg,13,0,13,0,,,,,1,0,4,0,0,0,0,0,0,0,0,0,,,,1017.3519394000177,1017.7173196999938,0.36538029997609556,,,,,-133,57:43,1,1022.6714735000278,right,1,0.347288099990692,None,,,,,,,,fff,1 - without skip,"60:40, 57:43","2.5s, 2.0s",2023-07-16_16h08.27.210,Rewa's Exp,2023.1.2,59.97674101728344,
2,Countdown_2s.mp4,red,green,right,Countdown_2s.jpg,13,0,13,0,,,,,1,1,5,1,0,0,0,0,0,0,0,0,,,,1021.6203205999918,1021.6599455000251,0.039624900033231825,,,,,-132,57:43,1,1026.939872500021,right,1,0.02373240003362298,None,,,,,,,,fff,1 - without skip,"60:40, 57:43","2.5s, 2.0s",2023-07-16_16h08.27.210,Rewa's Exp,2023.1.2,59.97674101728344,
2,Countdown_2s.mp4,green,red,left,Countdown_2s.jpg,13,0,13,0,,,,,1,2,6,3,0,0,0,0,0,0,0,0,,,,1025.6104209999903,1027.5838640999864,1.973443099996075,,,,,-134,57:43,-2,1030.9299223999842,None,0,,None,,,,,,,,fff,1 - without skip,"60:40, 57:43","2.5s, 2.0s",2023-07-16_16h08.27.210,Rewa's Exp,2023.1.2,59.97674101728344,
2.5,Countdown_2.5s.mp4,green,red,left,Countdown_2.5s.jpg,13,0,13,0,,,,,1,3,7,2,0,0,0,0,0,0,0,0,,,,1031.4844452000107,1033.9838163999957,2.4993711999850348,,,,,-136,57:43,-2,1036.8039769000025,None,0,,None,,,,,,,,fff,1 - without skip,"60:40, 57:43","2.5s, 2.0s",2023-07-16_16h08.27.210,Rewa's Exp,2023.1.2,59.97674101728344,
2,Countdown_2s.mp4,red,green,right,Countdown_2s.jpg,13,0,13,0,,,,,,,,,0,0,0,2,0,0,0,1,,,,,,,,,,,,,,,,,,,1040.4386885000276,1040.4386885000276,1040.4386885000276,1040.4386885000276,space,1.188502500008326,,fff,1 - without skip,"60:40, 57:43","2.5s, 2.0s",2023-07-16_16h08.27.210,Rewa's Exp,2023.1.2,59.97674101728344,
2,Countdown_2s.mp4,red,green,right,Countdown_2s.jpg,14,0,14,0,0,0,0,1,,,,,0,0,0,2,0,0,0,1,,,,1039.1212876000209,1039.1469700000016,0.025682399980723858,right,1,0.010550100007094443,None,-135,60:40,1,,,,,,,,,,,,,fff,1 - without skip,"60:40, 57:43","2.5s, 2.0s",2023-07-16_16h08.27.210,Rewa's Exp,2023.1.2,59.97674101728344,
2.5,Countdown_2.5s.mp4,green,red,left,Countdown_2.5s.jpg,14,0,14,0,0,1,1,2,,,,,0,0,0,2,0,0,0,1,,,,1043.0913665000116,1043.2673884999822,0.17602199997054413,left,1,0.1522908000042662,None,-134,60:40,1,,,,,,,,,,,,,fff,1 - without skip,"60:40, 57:43","2.5s, 2.0s",2023-07-16_16h08.27.210,Rewa's Exp,2023.1.2,59.97674101728344,
2.5,Countdown_2.5s.mp4,red,green,right,Countdown_2.5s.jpg,14,0,14,0,0,2,2,0,,,,,0,0,0,2,0,0,0,1,,,,1047.1708315999713,1047.5338725000038,0.36304090003250167,left,0,0.3361706000287086,None,-136,60:40,-2,,,,,,,,,,,,,fff,1 - without skip,"60:40, 57:43","2.5s, 2.0s",2023-07-16_16h08.27.210,Rewa's Exp,2023.1.2,59.97674101728344,
2,Countdown_2s.mp4,green,red,left,Countdown_2s.jpg,14,0,14,0,0,3,3,3,,,,,0,0,0,2,0,0,0,1,,,,1051.443159300019,1051.7008128999732,0.2576535999542102,left,1,0.2309928999748081,None,-135,60:40,1,,,,,,,,,,,,,fff,1 - without skip,"60:40, 57:43","2.5s, 2.0s",2023-07-16_16h08.27.210,Rewa's Exp,2023.1.2,59.97674101728344,
2,Countdown_2s.mp4,green,red,left,Countdown_2s.jpg,14,0,14,0,1,0,4,3,,,,,0,0,0,2,0,0,0,1,,,,1055.595124399988,1055.6838209999842,0.08869659999618307,left,1,0.05616300000110641,None,-134,60:40,1,,,,,,,,,,,,,fff,1 - without skip,"60:40, 57:43","2.5s, 2.0s",2023-07-16_16h08.27.210,Rewa's Exp,2023.1.2,59.97674101728344,
2,Countdown_2s.mp4,red,green,right,Countdown_2s.jpg,14,0,14,0,1,1,5,1,,,,,0,0,0,2,0,0,0,1,,,,1059.5907698000083,1059.9345106999972,0.34374089998891577,left,0,0.31667540001217276,None,-136,60:40,-2,,,,,,,,,,,,,fff,1 - without skip,"60:40, 57:43","2.5s, 2.0s",2023-07-16_16h08.27.210,Rewa's Exp,2023.1.2,59.97674101728344,
2.5,Countdown_2.5s.mp4,green,red,left,Countdown_2.5s.jpg,14,0,14,0,1,2,6,2,,,,,0,0,0,2,0,0,0,1,,,,1063.8361963999923,1064.1006416999735,0.26444529998116195,left,1,0.23777559999143705,None,-135,60:40,1,,,,,,,,,,,,,fff,1 - without skip,"60:40, 57:43","2.5s, 2.0s",2023-07-16_16h08.27.210,Rewa's Exp,2023.1.2,59.97674101728344,
2.5,Countdown_2.5s.mp4,red,green,right,Countdown_2.5s.jpg,14,0,14,0,1,3,7,0,,,,,0,0,0,2,0,0,0,1,,,,1067.9911590000265,1068.0853234999813,0.09416449995478615,left,0,0.07574669999303296,None,-137,60:40,-2,,,,,,,,,,,,,fff,1 - without skip,"60:40, 57:43","2.5s, 2.0s",2023-07-16_16h08.27.210,Rewa's Exp,2023.1.2,59.97674101728344,
2,Countdown_2s.mp4,red,green,right,Countdown_2s.jpg,14,0,14,0,,,,,0,0,0,1,0,0,0,2,0,0,0,1,,,,1072.0059596999781,1072.2344480999745,0.22848839999642223,,,,,-139,57:43,-2,1077.325488500006,left,0,0.20481139997718856,None,,,,,,,,fff,1 - without skip,"60:40, 57:43","2.5s, 2.0s",2023-07-16_16h08.27.210,Rewa's Exp,2023.1.2,59.97674101728344,
2.5,Countdown_2.5s.mp4,green,red,left,Countdown_2.5s.jpg,14,0,14,0,,,,,0,1,1,2,0,0,0,2,0,0,0,1,,,,1076.1624728000024,1076.2677735000034,0.10530070000095293,,,,,-138,57:43,1,1081.4820130000007,left,1,0.08022030000574887,None,,,,,,,,fff,1 - without skip,"60:40, 57:43","2.5s, 2.0s",2023-07-16_16h08.27.210,Rewa's Exp,2023.1.2,59.97674101728344,
2.5,Countdown_2.5s.mp4,red,green,right,Countdown_2.5s.jpg,14,0,14,0,,,,,0,2,2,0,0,0,0,2,0,0,0,1,,,,1080.199250900012,1080.400778500014,0.20152760000200942,,,,,-140,57:43,-2,1085.5187678000075,left,0,0.1795496999984607,None,,,,,,,,fff,1 - without skip,"60:40, 57:43","2.5s, 2.0s",2023-07-16_16h08.27.210,Rewa's Exp,2023.1.2,59.97674101728344,
2,Countdown_2s.mp4,green,red,left,Countdown_2s.jpg,14,0,14,0,,,,,0,3,3,3,0,0,0,2,0,0,0,1,,,,1084.3266685000272,1084.4840194999706,0.15735099994344637,,,,,-139,57:43,1,1089.6462443000055,left,1,0.14021619997220114,None,,,,,,,,fff,1 - without skip,"60:40, 57:43","2.5s, 2.0s",2023-07-16_16h08.27.210,Rewa's Exp,2023.1.2,59.97674101728344,
2.5,Countdown_2.5s.mp4,red,green,right,Countdown_2.5s.jpg,14,0,14,0,,,,,1,0,4,0,0,0,0,2,0,0,0,1,,,,1088.3984810999827,1088.6343190000043,0.23583790002157912,,,,,-141,57:43,-2,1093.7180203000316,left,0,0.2033625000040047,None,,,,,,,,fff,1 - without skip,"60:40, 57:43","2.5s, 2.0s",2023-07-16_16h08.27.210,Rewa's Exp,2023.1.2,59.97674101728344,
2,Countdown_2s.mp4,green,red,left,Countdown_2s.jpg,14,0,14,0,,,,,1,1,5,3,0,0,0,2,0,0,0,1,,,,1092.5877652000054,1093.084162299987,0.4963970999815501,,,,,-140,57:43,1,1097.9072577999905,left,1,0.4790705000050366,None,,,,,,,,fff,1 - without skip,"60:40, 57:43","2.5s, 2.0s",2023-07-16_16h08.27.210,Rewa's Exp,2023.1.2,59.97674101728344,
2.5,Countdown_2.5s.mp4,green,red,left,Countdown_2.5s.jpg,14,0,14,0,,,,,1,2,6,2,0,0,0,2,0,0,0,1,,,,1096.9713941999944,1097.2175449000206,0.24615070002619177,,,,,-139,57:43,1,1102.2909569999902,left,1,0.22362319997046143,None,,,,,,,,fff,1 - without skip,"60:40, 57:43","2.5s, 2.0s",2023-07-16_16h08.27.210,Rewa's Exp,2023.1.2,59.97674101728344,
2,Countdown_2s.mp4,red,green,right,Countdown_2s.jpg,14,0,14,0,,,,,1,3,7,1,0,0,0,2,0,0,0,1,,,,1101.1061626999872,1101.6508668999886,0.5447042000014335,,,,,-141,57:43,-2,1106.4256498999894,left,0,0.5201330999843776,None,,,,,,,,fff,1 - without skip,"60:40, 57:43","2.5s, 2.0s",2023-07-16_16h08.27.210,Rewa's Exp,2023.1.2,59.97674101728344,
2,Countdown_2s.mp4,green,red,left,Countdown_2s.jpg,14,0,14,0,,,,,,,,,0,0,0,3,0,0,0,3,,,,,,,,,,,,,,,,,,,1108.1136460999842,1108.1136460999842,1108.1136460999842,1108.1136460999842,space,1.8560140999616124,,fff,1 - without skip,"60:40, 57:43","2.5s, 2.0s",2023-07-16_16h08.27.210,Rewa's Exp,2023.1.2,59.97674101728344,
,,,,,,,,,,,,,,,,,,,,,,,,,,,,,,,,,,,,,,,,,,,,,,,,,,1109.998001000029,,,,,,,,,
