Countdown,color1,color2,correct,screenshot,trials.thisRepN,trials.thisTrialN,trials.thisN,trials.thisIndex,trials_6040.thisRepN,trials_6040.thisTrialN,trials_6040.thisN,trials_6040.thisIndex,trials_5743.thisRepN,trials_5743.thisTrialN,trials_5743.thisN,trials_5743.thisIndex,trials_5446.thisRepN,trials_5446.thisTrialN,trials_5446.thisN,trials_5446.thisIndex,trials_5149.thisRepN,trials_5149.thisTrialN,trials_5149.thisN,trials_5149.thisIndex,key_resp_4.started,key_resp_4.keys,key_resp_4.rt,key_resp_2.started,key_resp_2.keys,key_resp_2.rt,key_resp_3.keys,Videoshowstart,Videoshowstop,VideoshowRT,response.keys,response.corr,response.rt,key_skip.keys,total_score,Dot_ratio,current_score,Left_3.started,response_2.keys,response_2.corr,response_2.rt,key_skip_2.keys,text_2.started,text_5.started,key_resp.started,text_9.started,key_resp.keys,key_resp.rt,text_10.started,text_10.stopped,participant,Task,Dot Ratio,Deadline,date,expName,psychopyVersion,frameRate,
,,,,,,,,,,,,,,,,,,,,,,,,,65.56079869999849,space,1.430629600001339,,,,,,,,,,,,,,,,,,,,,,,,,,,,negar,1 - without skip,"60:40, 57:43","2.0s, 1.5s",2023-07-18_18h09.12.725,Rewa's Exp,2023.1.2,59.98271298185268,
,,,,,,,,,,,,,,,,,,,,,,,,,,,,67.0221862999988,space,5.057852500000081,,,,,,,,,,,,,,,,,,,,,,,,,negar,1 - without skip,"60:40, 57:43","2.0s, 1.5s",2023-07-18_18h09.12.725,Rewa's Exp,2023.1.2,59.98271298185268,
,,,,,,,,,,,,,,,,,,,,,,,,,,,,,,,None,,,,,,,,,,,,,,,,,,,,,,,,negar,1 - without skip,"60:40, 57:43","2.0s, 1.5s",2023-07-18_18h09.12.725,Rewa's Exp,2023.1.2,59.98271298185268,
Countdown_2s.mp4,red,green,right,Countdown_2s.jpg,0,0,0,0,0,0,0,1,,,,,,,,,,,,,,,,,,,,68.93598369999927,70.02489229999992,1.08890860000065,right,1,1.0589184000000387,None,1,60:40,1,,,,,,,,,,,,,,negar,1 - without skip,"60:40, 57:43","2.0s, 1.5s",2023-07-18_18h09.12.725,Rewa's Exp,2023.1.2,59.98271298185268,
Countdown_2s.mp4,green,red,left,Countdown_2s.jpg,0,0,0,0,0,1,1,3,,,,,,,,,,,,,,,,,,,,73.92539459999898,75.57478439999977,1.6493898000007903,left,1,1.6291035000012926,None,2,60:40,1,,,,,,,,,,,,,,negar,1 - without skip,"60:40, 57:43","2.0s, 1.5s",2023-07-18_18h09.12.725,Rewa's Exp,2023.1.2,59.98271298185268,
Countdown_1.5s.mp4,green,red,left,Countdown_1.5s.jpg,0,0,0,0,0,2,2,2,,,,,,,,,,,,,,,,,,,,79.53846259999955,80.80836499999896,1.2699023999994097,left,1,1.2491243000004033,None,3,60:40,1,,,,,,,,,,,,,,negar,1 - without skip,"60:40, 57:43","2.0s, 1.5s",2023-07-18_18h09.12.725,Rewa's Exp,2023.1.2,59.98271298185268,
Countdown_1.5s.mp4,red,green,right,Countdown_1.5s.jpg,0,0,0,0,0,3,3,0,,,,,,,,,,,,,,,,,,,,84.74460030000046,85.87505269999929,1.1304523999988305,right,1,1.1062806000009004,None,4,60:40,1,,,,,,,,,,,,,,negar,1 - without skip,"60:40, 57:43","2.0s, 1.5s",2023-07-18_18h09.12.725,Rewa's Exp,2023.1.2,59.98271298185268,
Countdown_1.5s.mp4,green,red,left,Countdown_1.5s.jpg,0,0,0,0,1,0,4,2,,,,,,,,,,,,,,,,,,,,89.7926736999998,91.15798209999957,1.3653083999997762,left,1,1.3382470000015019,None,5,60:40,1,,,,,,,,,,,,,,negar,1 - without skip,"60:40, 57:43","2.0s, 1.5s",2023-07-18_18h09.12.725,Rewa's Exp,2023.1.2,59.98271298185268,
Countdown_2s.mp4,red,green,right,Countdown_2s.jpg,0,0,0,0,1,1,5,1,,,,,,,,,,,,,,,,,,,,95.08585669999957,96.7747662999991,1.6889095999995334,right,1,1.6600792999997793,None,6,60:40,1,,,,,,,,,,,,,,negar,1 - without skip,"60:40, 57:43","2.0s, 1.5s",2023-07-18_18h09.12.725,Rewa's Exp,2023.1.2,59.98271298185268,
Countdown_2s.mp4,green,red,left,Countdown_2s.jpg,0,0,0,0,1,2,6,3,,,,,,,,,,,,,,,,,,,,100.69351590000042,102.22480410000026,1.5312881999998353,left,1,1.5083806000002369,None,7,60:40,1,,,,,,,,,,,,,,negar,1 - without skip,"60:40, 57:43","2.0s, 1.5s",2023-07-18_18h09.12.725,Rewa's Exp,2023.1.2,59.98271298185268,
Countdown_1.5s.mp4,red,green,right,Countdown_1.5s.jpg,0,0,0,0,1,3,7,0,,,,,,,,,,,,,,,,,,,,106.13932720000048,107.40844040000047,1.2691131999999925,right,1,1.2471956000026694,None,8,60:40,1,,,,,,,,,,,,,,negar,1 - without skip,"60:40, 57:43","2.0s, 1.5s",2023-07-18_18h09.12.725,Rewa's Exp,2023.1.2,59.98271298185268,
Countdown_2s.mp4,green,red,left,Countdown_2s.jpg,0,0,0,0,,,,,0,0,0,3,,,,,,,,,,,,,,,,111.17014829999971,112.85821029999897,1.6880619999992632,,,,,9,57:43,1,117.03915469999993,left,1,1.656271600000764,None,,,,,,,,,negar,1 - without skip,"60:40, 57:43","2.0s, 1.5s",2023-07-18_18h09.12.725,Rewa's Exp,2023.1.2,59.98271298185268,
Countdown_2s.mp4,red,green,right,Countdown_2s.jpg,0,0,0,0,,,,,0,1,1,1,,,,,,,,,,,,,,,,116.77833289999944,118.55806049999956,1.7797276000001148,,,,,10,57:43,1,122.64734679999856,right,1,1.7602139999999054,None,,,,,,,,,negar,1 - without skip,"60:40, 57:43","2.0s, 1.5s",2023-07-18_18h09.12.725,Rewa's Exp,2023.1.2,59.98271298185268,
Countdown_1.5s.mp4,green,red,left,Countdown_1.5s.jpg,0,0,0,0,,,,,0,2,2,2,,,,,,,,,,,,,,,,122.4569919000005,123.87488610000037,1.4178941999998642,,,,,11,57:43,1,128.32603449999988,left,1,1.3851739000019734,None,,,,,,,,,negar,1 - without skip,"60:40, 57:43","2.0s, 1.5s",2023-07-18_18h09.12.725,Rewa's Exp,2023.1.2,59.98271298185268,
Countdown_1.5s.mp4,red,green,right,Countdown_1.5s.jpg,0,0,0,0,,,,,0,3,3,0,,,,,,,,,,,,,,,,127.77637890000005,129.05794909999895,1.281570199998896,,,,,12,57:43,1,133.64543459999913,right,1,1.2500731000000087,None,,,,,,,,,negar,1 - without skip,"60:40, 57:43","2.0s, 1.5s",2023-07-18_18h09.12.725,Rewa's Exp,2023.1.2,59.98271298185268,
Countdown_2s.mp4,red,green,right,Countdown_2s.jpg,0,0,0,0,,,,,1,0,4,1,,,,,,,,,,,,,,,,132.9887773999999,134.77462009999908,1.7858426999991934,,,,,13,57:43,1,138.8577723999988,right,1,1.7576801000013802,None,,,,,,,,,negar,1 - without skip,"60:40, 57:43","2.0s, 1.5s",2023-07-18_18h09.12.725,Rewa's Exp,2023.1.2,59.98271298185268,
Countdown_1.5s.mp4,green,red,left,Countdown_1.5s.jpg,0,0,0,0,,,,,1,1,5,2,,,,,,,,,,,,,,,,138.67545140000038,140.07471590000023,1.3992644999998447,,,,,11,57:43,-2,144.5444837999985,right,0,1.3757765000009385,None,,,,,,,,,negar,1 - without skip,"60:40, 57:43","2.0s, 1.5s",2023-07-18_18h09.12.725,Rewa's Exp,2023.1.2,59.98271298185268,
Countdown_1.5s.mp4,red,green,right,Countdown_1.5s.jpg,0,0,0,0,,,,,1,2,6,0,,,,,,,,,,,,,,,,144.01312999999936,144.92576689999987,0.912636900000507,,,,,12,57:43,1,149.88215489999857,right,1,0.8945897000012337,None,,,,,,,,,negar,1 - without skip,"60:40, 57:43","2.0s, 1.5s",2023-07-18_18h09.12.725,Rewa's Exp,2023.1.2,59.98271298185268,
Countdown_2s.mp4,green,red,left,Countdown_2s.jpg,0,0,0,0,,,,,1,3,7,3,,,,,,,,,,,,,,,,148.84944469999937,150.49131540000053,1.6418707000011636,,,,,13,57:43,1,154.7184733999984,left,1,1.6247852000014973,None,,,,,,,,,negar,1 - without skip,"60:40, 57:43","2.0s, 1.5s",2023-07-18_18h09.12.725,Rewa's Exp,2023.1.2,59.98271298185268,
Countdown_1.5s.mp4,red,green,right,Countdown_1.5s.jpg,0,0,0,0,,,,,,,,,0,0,0,2,0,0,0,0,,,,,,,,,,,,,,,,,,,,,,,157.51500209999904,157.51500209999904,157.51500209999904,157.51500209999904,space,27.181032200001937,,,negar,1 - without skip,"60:40, 57:43","2.0s, 1.5s",2023-07-18_18h09.12.725,Rewa's Exp,2023.1.2,59.98271298185268,
Countdown_2s.mp4,red,green,right,Countdown_2s.jpg,1,0,1,0,0,0,0,1,,,,,0,0,0,2,0,0,0,0,,,,,,,,181.68876379999892,183.39123300000028,1.7024692000013602,right,1,1.672850400000243,None,14,60:40,1,,,,,,,,,,,,,,negar,1 - without skip,"60:40, 57:43","2.0s, 1.5s",2023-07-18_18h09.12.725,Rewa's Exp,2023.1.2,59.98271298185268,
Countdown_1.5s.mp4,red,green,right,Countdown_1.5s.jpg,1,0,1,0,0,1,1,0,,,,,0,0,0,2,0,0,0,0,,,,,,,,187.29367289999936,188.49133950000032,1.1976666000009573,right,1,1.1647020000018529,None,15,60:40,1,,,,,,,,,,,,,,negar,1 - without skip,"60:40, 57:43","2.0s, 1.5s",2023-07-18_18h09.12.725,Rewa's Exp,2023.1.2,59.98271298185268,
Countdown_1.5s.mp4,green,red,left,Countdown_1.5s.jpg,1,0,1,0,0,2,2,2,,,,,0,0,0,2,0,0,0,0,,,,,,,,192.42020369999955,193.6918571999995,1.2716534999999567,left,1,1.2387820000021748,None,16,60:40,1,,,,,,,,,,,,,,negar,1 - without skip,"60:40, 57:43","2.0s, 1.5s",2023-07-18_18h09.12.725,Rewa's Exp,2023.1.2,59.98271298185268,
Countdown_2s.mp4,green,red,left,Countdown_2s.jpg,1,0,1,0,0,3,3,3,,,,,0,0,0,2,0,0,0,0,,,,,,,,197.65580670000054,199.57472869999947,1.918921999998929,left,1,1.8995606000025873,None,17,60:40,1,,,,,,,,,,,,,,negar,1 - without skip,"60:40, 57:43","2.0s, 1.5s",2023-07-18_18h09.12.725,Rewa's Exp,2023.1.2,59.98271298185268,
Countdown_1.5s.mp4,green,red,left,Countdown_1.5s.jpg,1,0,1,0,1,0,4,2,,,,,0,0,0,2,0,0,0,0,,,,,,,,203.49590869999884,204.92466609999974,1.4287574000009045,left,1,1.4016603000018222,None,18,60:40,1,,,,,,,,,,,,,,negar,1 - without skip,"60:40, 57:43","2.0s, 1.5s",2023-07-18_18h09.12.725,Rewa's Exp,2023.1.2,59.98271298185268,
Countdown_2s.mp4,red,green,right,Countdown_2s.jpg,1,0,1,0,1,1,5,1,,,,,0,0,0,2,0,0,0,0,,,,,,,,208.8597436,210.6255782999997,1.7658346999996866,right,1,1.7419296999996732,None,19,60:40,1,,,,,,,,,,,,,,negar,1 - without skip,"60:40, 57:43","2.0s, 1.5s",2023-07-18_18h09.12.725,Rewa's Exp,2023.1.2,59.98271298185268,
Countdown_2s.mp4,green,red,left,Countdown_2s.jpg,1,0,1,0,1,2,6,3,,,,,0,0,0,2,0,0,0,0,,,,,,,,214.53941010000017,216.32475489999888,1.785344799998711,left,1,1.767550399999891,None,20,60:40,1,,,,,,,,,,,,,,negar,1 - without skip,"60:40, 57:43","2.0s, 1.5s",2023-07-18_18h09.12.725,Rewa's Exp,2023.1.2,59.98271298185268,
Countdown_1.5s.mp4,red,green,right,Countdown_1.5s.jpg,1,0,1,0,1,3,7,0,,,,,0,0,0,2,0,0,0,0,,,,,,,,220.22612949999893,221.62527000000046,1.399140500001522,right,1,1.3686723000027996,None,21,60:40,1,,,,,,,,,,,,,,negar,1 - without skip,"60:40, 57:43","2.0s, 1.5s",2023-07-18_18h09.12.725,Rewa's Exp,2023.1.2,59.98271298185268,
Countdown_1.5s.mp4,green,red,left,Countdown_1.5s.jpg,1,0,1,0,,,,,0,0,0,2,0,0,0,2,0,0,0,0,,,,,,,,225.58195179999893,226.97473009999885,1.392778299999918,,,,,22,57:43,1,231.45098439999856,left,1,1.3721103000007133,None,,,,,,,,,negar,1 - without skip,"60:40, 57:43","2.0s, 1.5s",2023-07-18_18h09.12.725,Rewa's Exp,2023.1.2,59.98271298185268,
Countdown_2s.mp4,red,green,right,Countdown_2s.jpg,1,0,1,0,,,,,0,1,1,1,0,0,0,2,0,0,0,0,,,,,,,,230.8966421999994,232.74120500000026,1.8445628000008583,,,,,20,57:43,-2,236.76565219999975,left,0,1.8178999000010663,None,,,,,,,,,negar,1 - without skip,"60:40, 57:43","2.0s, 1.5s",2023-07-18_18h09.12.725,Rewa's Exp,2023.1.2,59.98271298185268,
Countdown_2s.mp4,green,red,left,Countdown_2s.jpg,1,0,1,0,,,,,0,2,2,3,0,0,0,2,0,0,0,0,,,,,,,,236.66583919999903,238.55806269999994,1.8922235000009096,,,,,21,57:43,1,242.53485049999836,left,1,1.873339900001156,None,,,,,,,,,negar,1 - without skip,"60:40, 57:43","2.0s, 1.5s",2023-07-18_18h09.12.725,Rewa's Exp,2023.1.2,59.98271298185268,
Countdown_1.5s.mp4,red,green,right,Countdown_1.5s.jpg,1,0,1,0,,,,,0,3,3,0,0,0,0,2,0,0,0,0,,,,,,,,242.4610574999988,243.7411960999998,1.2801386000010098,,,,,22,57:43,1,248.33005539999976,right,1,1.2607213999999658,None,,,,,,,,,negar,1 - without skip,"60:40, 57:43","2.0s, 1.5s",2023-07-18_18h09.12.725,Rewa's Exp,2023.1.2,59.98271298185268,
Countdown_2s.mp4,green,red,left,Countdown_2s.jpg,1,0,1,0,,,,,1,0,4,3,0,0,0,2,0,0,0,0,,,,,,,,247.65913960000034,249.3245814999991,1.6654418999987683,,,,,23,57:43,1,253.52817249999862,left,1,1.6385552000010648,None,,,,,,,,,negar,1 - without skip,"60:40, 57:43","2.0s, 1.5s",2023-07-18_18h09.12.725,Rewa's Exp,2023.1.2,59.98271298185268,
Countdown_2s.mp4,red,green,right,Countdown_2s.jpg,1,0,1,0,,,,,1,1,5,1,0,0,0,2,0,0,0,0,,,,,,,,253.2449684000003,254.77459079999971,1.5296223999994254,,,,,24,57:43,1,259.11398329999975,right,1,1.500409700000091,None,,,,,,,,,negar,1 - without skip,"60:40, 57:43","2.0s, 1.5s",2023-07-18_18h09.12.725,Rewa's Exp,2023.1.2,59.98271298185268,
Countdown_1.5s.mp4,red,green,right,Countdown_1.5s.jpg,1,0,1,0,,,,,1,2,6,0,0,0,0,2,0,0,0,0,,,,,,,,258.6791218999988,259.94126979999965,1.2621479000008549,,,,,25,57:43,1,264.5481405999999,right,1,1.2356275000020105,None,,,,,,,,,negar,1 - without skip,"60:40, 57:43","2.0s, 1.5s",2023-07-18_18h09.12.725,Rewa's Exp,2023.1.2,59.98271298185268,
Countdown_1.5s.mp4,green,red,left,Countdown_1.5s.jpg,1,0,1,0,,,,,1,3,7,2,0,0,0,2,0,0,0,0,,,,,,,,263.83193989999927,265.1246883999993,1.292748500000016,,,,,26,57:43,1,269.70093839999936,left,1,1.2667948000016622,None,,,,,,,,,negar,1 - without skip,"60:40, 57:43","2.0s, 1.5s",2023-07-18_18h09.12.725,Rewa's Exp,2023.1.2,59.98271298185268,
Countdown_2s.mp4,green,red,left,Countdown_2s.jpg,1,0,1,0,,,,,,,,,0,0,0,0,0,0,0,3,,,,,,,,,,,,,,,,,,,,,,,272.1471419999998,272.1471419999998,272.1471419999998,272.1471419999998,space,2.7482470000013564,,,negar,1 - without skip,"60:40, 57:43","2.0s, 1.5s",2023-07-18_18h09.12.725,Rewa's Exp,2023.1.2,59.98271298185268,
Countdown_1.5s.mp4,green,red,left,Countdown_1.5s.jpg,2,0,2,0,0,0,0,2,,,,,0,0,0,0,0,0,0,3,,,,,,,,271.82435689999875,273.12454929999876,1.3001924000000145,right,0,1.2733236000021861,None,24,60:40,-2,,,,,,,,,,,,,,negar,1 - without skip,"60:40, 57:43","2.0s, 1.5s",2023-07-18_18h09.12.725,Rewa's Exp,2023.1.2,59.98271298185268,
Countdown_1.5s.mp4,red,green,right,Countdown_1.5s.jpg,2,0,2,0,0,1,1,0,,,,,0,0,0,0,0,0,0,3,,,,,,,,277.03148859999965,278.24125129999993,1.209762700000283,right,1,1.1871297000016057,None,25,60:40,1,,,,,,,,,,,,,,negar,1 - without skip,"60:40, 57:43","2.0s, 1.5s",2023-07-18_18h09.12.725,Rewa's Exp,2023.1.2,59.98271298185268,
Countdown_2s.mp4,green,red,left,Countdown_2s.jpg,2,0,2,0,0,2,2,3,,,,,0,0,0,0,0,0,0,3,,,,,,,,282.17331249999916,283.6909883999997,1.5176759000005404,left,1,1.500823100001071,None,26,60:40,1,,,,,,,,,,,,,,negar,1 - without skip,"60:40, 57:43","2.0s, 1.5s",2023-07-18_18h09.12.725,Rewa's Exp,2023.1.2,59.98271298185268,
Countdown_2s.mp4,red,green,right,Countdown_2s.jpg,2,0,2,0,0,3,3,1,,,,,0,0,0,0,0,0,0,3,,,,,,,,287.6178001999997,289.0583244999998,1.4405243000001065,right,1,1.416342500002429,None,27,60:40,1,,,,,,,,,,,,,,negar,1 - without skip,"60:40, 57:43","2.0s, 1.5s",2023-07-18_18h09.12.725,Rewa's Exp,2023.1.2,59.98271298185268,
Countdown_2s.mp4,green,red,left,Countdown_2s.jpg,2,0,2,0,1,0,4,3,,,,,0,0,0,0,0,0,0,3,,,,,,,,293.00110929999937,294.65799010000046,1.6568808000010904,left,1,1.6245122000018455,None,28,60:40,1,,,,,,,,,,,,,,negar,1 - without skip,"60:40, 57:43","2.0s, 1.5s",2023-07-18_18h09.12.725,Rewa's Exp,2023.1.2,59.98271298185268,
Countdown_2s.mp4,red,green,right,Countdown_2s.jpg,2,0,2,0,1,1,5,1,,,,,0,0,0,0,0,0,0,3,,,,,,,,298.56733989999884,300.30801690000044,1.7406770000015968,right,1,1.723401000002923,None,29,60:40,1,,,,,,,,,,,,,,negar,1 - without skip,"60:40, 57:43","2.0s, 1.5s",2023-07-18_18h09.12.725,Rewa's Exp,2023.1.2,59.98271298185268,
Countdown_1.5s.mp4,green,red,left,Countdown_1.5s.jpg,2,0,2,0,1,2,6,2,,,,,0,0,0,0,0,0,0,3,,,,,,,,304.1947875999995,305.4249120000004,1.230124400000932,left,1,1.1987772000011319,None,30,60:40,1,,,,,,,,,,,,,,negar,1 - without skip,"60:40, 57:43","2.0s, 1.5s",2023-07-18_18h09.12.725,Rewa's Exp,2023.1.2,59.98271298185268,
Countdown_1.5s.mp4,red,green,right,Countdown_1.5s.jpg,2,0,2,0,1,3,7,0,,,,,0,0,0,0,0,0,0,3,,,,,,,,309.34948619999886,310.69127689999914,1.3417907000002742,right,1,1.3168887000010727,None,31,60:40,1,,,,,,,,,,,,,,negar,1 - without skip,"60:40, 57:43","2.0s, 1.5s",2023-07-18_18h09.12.725,Rewa's Exp,2023.1.2,59.98271298185268,
Countdown_2s.mp4,red,green,right,Countdown_2s.jpg,2,0,2,0,,,,,0,0,0,1,0,0,0,0,0,0,0,3,,,,,,,,314.5939478,315.80796779999946,1.2140199999994365,,,,,29,57:43,-2,320.46301029999995,left,0,1.1919197000024724,None,,,,,,,,,negar,1 - without skip,"60:40, 57:43","2.0s, 1.5s",2023-07-18_18h09.12.725,Rewa's Exp,2023.1.2,59.98271298185268,
Countdown_2s.mp4,green,red,left,Countdown_2s.jpg,2,0,2,0,,,,,0,1,1,3,0,0,0,0,0,0,0,3,,,,,,,,319.747036499999,321.5745972000004,1.8275607000014134,,,,,30,57:43,1,325.6160001999997,left,1,1.798615300000165,None,,,,,,,,,negar,1 - without skip,"60:40, 57:43","2.0s, 1.5s",2023-07-18_18h09.12.725,Rewa's Exp,2023.1.2,59.98271298185268,
Countdown_1.5s.mp4,green,red,left,Countdown_1.5s.jpg,2,0,2,0,,,,,0,2,2,2,0,0,0,0,0,0,0,3,,,,,,,,325.47715029999927,326.8079493999994,1.3307991000001493,,,,,28,57:43,-2,331.34615349999876,right,0,1.3007491999997,None,,,,,,,,,negar,1 - without skip,"60:40, 57:43","2.0s, 1.5s",2023-07-18_18h09.12.725,Rewa's Exp,2023.1.2,59.98271298185268,
Countdown_1.5s.mp4,red,green,right,Countdown_1.5s.jpg,2,0,2,0,,,,,0,3,3,0,0,0,0,0,0,0,0,3,,,,,,,,330.7575618999999,332.0079996000004,1.2504377000004752,,,,,26,57:43,-2,336.6265818999982,left,0,1.22802910000064,None,,,,,,,,,negar,1 - without skip,"60:40, 57:43","2.0s, 1.5s",2023-07-18_18h09.12.725,Rewa's Exp,2023.1.2,59.98271298185268,
Countdown_2s.mp4,green,red,left,Countdown_2s.jpg,2,0,2,0,,,,,1,0,4,3,0,0,0,0,0,0,0,3,,,,,,,,335.91889880000053,337.7246247000003,1.805725899999743,,,,,24,57:43,-2,341.78792369999974,right,0,1.7783845000012661,None,,,,,,,,,negar,1 - without skip,"60:40, 57:43","2.0s, 1.5s",2023-07-18_18h09.12.725,Rewa's Exp,2023.1.2,59.98271298185268,
Countdown_2s.mp4,red,green,right,Countdown_2s.jpg,2,0,2,0,,,,,1,1,5,1,0,0,0,0,0,0,0,3,,,,,,,,341.6397758000003,343.02461009999934,1.3848342999990564,,,,,22,57:43,-2,347.5087924999989,left,0,1.3622513000009349,None,,,,,,,,,negar,1 - without skip,"60:40, 57:43","2.0s, 1.5s",2023-07-18_18h09.12.725,Rewa's Exp,2023.1.2,59.98271298185268,
Countdown_1.5s.mp4,red,green,right,Countdown_1.5s.jpg,2,0,2,0,,,,,1,2,6,0,0,0,0,0,0,0,0,3,,,,,,,,346.9206546000005,348.1745305000004,1.2538758999999118,,,,,23,57:43,1,352.7896950999984,right,1,1.2251564000016515,None,,,,,,,,,negar,1 - without skip,"60:40, 57:43","2.0s, 1.5s",2023-07-18_18h09.12.725,Rewa's Exp,2023.1.2,59.98271298185268,
Countdown_1.5s.mp4,green,red,left,Countdown_1.5s.jpg,2,0,2,0,,,,,1,3,7,2,0,0,0,0,0,0,0,3,,,,,,,,352.0873628999998,353.4578727999997,1.3705098999998881,,,,,21,57:43,-2,357.9563485999988,right,0,1.3386079000010795,None,,,,,,,,,negar,1 - without skip,"60:40, 57:43","2.0s, 1.5s",2023-07-18_18h09.12.725,Rewa's Exp,2023.1.2,59.98271298185268,
Countdown_2s.mp4,red,green,right,Countdown_2s.jpg,2,0,2,0,,,,,,,,,0,0,0,1,0,0,0,1,,,,,,,,,,,,,,,,,,,,,,,360.4599425999986,360.4599425999986,360.4599425999986,360.4599425999986,space,8.251068000001396,,,negar,1 - without skip,"60:40, 57:43","2.0s, 1.5s",2023-07-18_18h09.12.725,Rewa's Exp,2023.1.2,59.98271298185268,
Countdown_1.5s.mp4,red,green,right,Countdown_1.5s.jpg,3,0,3,0,0,0,0,0,,,,,0,0,0,1,0,0,0,1,,,,,,,,365.6439516999999,366.8912746999995,1.2473229999995965,right,1,1.2222775000009278,None,22,60:40,1,,,,,,,,,,,,,,negar,1 - without skip,"60:40, 57:43","2.0s, 1.5s",2023-07-18_18h09.12.725,Rewa's Exp,2023.1.2,59.98271298185268,
Countdown_2s.mp4,red,green,right,Countdown_2s.jpg,3,0,3,0,0,1,1,1,,,,,0,0,0,1,0,0,0,1,,,,,,,,370.80381019999913,372.55814420000024,1.7543340000011085,right,1,1.7259284000010666,None,23,60:40,1,,,,,,,,,,,,,,negar,1 - without skip,"60:40, 57:43","2.0s, 1.5s",2023-07-18_18h09.12.725,Rewa's Exp,2023.1.2,59.98271298185268,
Countdown_1.5s.mp4,green,red,left,Countdown_1.5s.jpg,3,0,3,0,0,2,2,2,,,,,0,0,0,1,0,0,0,1,,,,,,,,376.4824128,377.7246147999995,1.2422019999994518,left,1,1.215817700000116,None,24,60:40,1,,,,,,,,,,,,,,negar,1 - without skip,"60:40, 57:43","2.0s, 1.5s",2023-07-18_18h09.12.725,Rewa's Exp,2023.1.2,59.98271298185268,
Countdown_2s.mp4,green,red,left,Countdown_2s.jpg,3,0,3,0,0,3,3,3,,,,,0,0,0,1,0,0,0,1,,,,,,,,381.62769469999876,383.27438319999965,1.6466885000008915,left,1,1.6302552000015567,None,25,60:40,1,,,,,,,,,,,,,,negar,1 - without skip,"60:40, 57:43","2.0s, 1.5s",2023-07-18_18h09.12.725,Rewa's Exp,2023.1.2,59.98271298185268,
Countdown_1.5s.mp4,red,green,right,Countdown_1.5s.jpg,3,0,3,0,1,0,4,0,,,,,0,0,0,1,0,0,0,1,,,,,,,,387.17930369999885,388.3746160999999,1.1953124000010575,right,1,1.1745637000003626,None,26,60:40,1,,,,,,,,,,,,,,negar,1 - without skip,"60:40, 57:43","2.0s, 1.5s",2023-07-18_18h09.12.725,Rewa's Exp,2023.1.2,59.98271298185268,
Countdown_1.5s.mp4,green,red,left,Countdown_1.5s.jpg,3,0,3,0,1,1,5,2,,,,,0,0,0,1,0,0,0,1,,,,,,,,392.3379203000004,393.6744899999994,1.3365696999990178,left,1,1.311257300001671,None,27,60:40,1,,,,,,,,,,,,,,negar,1 - without skip,"60:40, 57:43","2.0s, 1.5s",2023-07-18_18h09.12.725,Rewa's Exp,2023.1.2,59.98271298185268,
Countdown_2s.mp4,red,green,right,Countdown_2s.jpg,3,0,3,0,1,2,6,1,,,,,0,0,0,1,0,0,0,1,,,,,,,,397.5800185999997,399.30778929999906,1.7277706999993825,right,1,1.7096595000020898,None,28,60:40,1,,,,,,,,,,,,,,negar,1 - without skip,"60:40, 57:43","2.0s, 1.5s",2023-07-18_18h09.12.725,Rewa's Exp,2023.1.2,59.98271298185268,
Countdown_2s.mp4,green,red,left,Countdown_2s.jpg,3,0,3,0,1,3,7,3,,,,,0,0,0,1,0,0,0,1,,,,,,,,403.21496300000035,404.991134599999,1.7761715999986336,left,1,1.7557737000024645,None,29,60:40,1,,,,,,,,,,,,,,negar,1 - without skip,"60:40, 57:43","2.0s, 1.5s",2023-07-18_18h09.12.725,Rewa's Exp,2023.1.2,59.98271298185268,
Countdown_1.5s.mp4,green,red,left,Countdown_1.5s.jpg,3,0,3,0,,,,,0,0,0,2,0,0,0,1,0,0,0,1,,,,,,,,408.90965359999973,410.27439239999876,1.3647387999990315,,,,,30,57:43,1,414.7785163999997,left,1,1.332758600001398,None,,,,,,,,,negar,1 - without skip,"60:40, 57:43","2.0s, 1.5s",2023-07-18_18h09.12.725,Rewa's Exp,2023.1.2,59.98271298185268,
Countdown_2s.mp4,red,green,right,Countdown_2s.jpg,3,0,3,0,,,,,0,1,1,1,0,0,0,1,0,0,0,1,,,,,,,,414.1875812999988,415.9577817999998,1.7702005000010104,,,,,31,57:43,1,420.0565431999985,right,1,1.7501220000012836,None,,,,,,,,,negar,1 - without skip,"60:40, 57:43","2.0s, 1.5s",2023-07-18_18h09.12.725,Rewa's Exp,2023.1.2,59.98271298185268,
Countdown_1.5s.mp4,red,green,right,Countdown_1.5s.jpg,3,0,3,0,,,,,0,2,2,0,0,0,0,1,0,0,0,1,,,,,,,,419.90139929999896,421.1412132000005,1.2398139000015362,,,,,32,57:43,1,425.7704378999988,right,1,1.212557700002435,None,,,,,,,,,negar,1 - without skip,"60:40, 57:43","2.0s, 1.5s",2023-07-18_18h09.12.725,Rewa's Exp,2023.1.2,59.98271298185268,
Countdown_2s.mp4,green,red,left,Countdown_2s.jpg,3,0,3,0,,,,,0,3,3,3,0,0,0,1,0,0,0,1,,,,,,,,425.05786799999987,426.94129749999956,1.8834294999996928,,,,,33,57:43,1,430.92689189999874,left,1,1.8646516000007978,None,,,,,,,,,negar,1 - without skip,"60:40, 57:43","2.0s, 1.5s",2023-07-18_18h09.12.725,Rewa's Exp,2023.1.2,59.98271298185268,
Countdown_1.5s.mp4,red,green,right,Countdown_1.5s.jpg,3,0,3,0,,,,,1,0,4,0,0,0,0,1,0,0,0,1,,,,,,,,430.85361980000016,432.14112919999934,1.2875093999991805,,,,,31,57:43,-2,436.7226335999985,left,0,1.2684380000009696,None,,,,,,,,,negar,1 - without skip,"60:40, 57:43","2.0s, 1.5s",2023-07-18_18h09.12.725,Rewa's Exp,2023.1.2,59.98271298185268,
Countdown_2s.mp4,green,red,left,Countdown_2s.jpg,3,0,3,0,,,,,1,1,5,3,0,0,0,1,0,0,0,1,,,,,,,,436.0611504999997,437.5910917000001,1.529941200000394,,,,,32,57:43,1,441.9301667999989,left,1,1.500838100002511,None,,,,,,,,,negar,1 - without skip,"60:40, 57:43","2.0s, 1.5s",2023-07-18_18h09.12.725,Rewa's Exp,2023.1.2,59.98271298185268,
Countdown_1.5s.mp4,green,red,left,Countdown_1.5s.jpg,3,0,3,0,,,,,1,2,6,2,0,0,0,1,0,0,0,1,,,,,,,,441.5162081999988,442.95783870000014,1.441630500001338,,,,,33,57:43,1,447.385124299999,left,1,1.4221221000025253,None,,,,,,,,,negar,1 - without skip,"60:40, 57:43","2.0s, 1.5s",2023-07-18_18h09.12.725,Rewa's Exp,2023.1.2,59.98271298185268,
Countdown_2s.mp4,red,green,right,Countdown_2s.jpg,3,0,3,0,,,,,1,3,7,1,0,0,0,1,0,0,0,1,,,,,,,,446.88268400000015,448.64111930000035,1.758435300000201,,,,,31,57:43,-2,452.7516513999999,left,0,1.7353452000006655,None,,,,,,,,,negar,1 - without skip,"60:40, 57:43","2.0s, 1.5s",2023-07-18_18h09.12.725,Rewa's Exp,2023.1.2,59.98271298185268,
Countdown_1.5s.mp4,green,red,left,Countdown_1.5s.jpg,3,0,3,0,,,,,,,,,0,0,0,2,0,0,0,2,,,,,,,,,,,,,,,,,,,,,,,455.67207249999956,455.67207249999956,455.67207249999956,455.67207249999956,space,1.847026300001744,,,negar,1 - without skip,"60:40, 57:43","2.0s, 1.5s",2023-07-18_18h09.12.725,Rewa's Exp,2023.1.2,59.98271298185268,
Countdown_2s.mp4,red,green,right,Countdown_2s.jpg,4,0,4,0,0,0,0,1,,,,,0,0,0,2,0,0,0,2,,,,,,,,454.4496199999994,455.9247290000003,1.4751090000008844,right,1,1.456842700001289,None,32,60:40,1,,,,,,,,,,,,,,negar,1 - without skip,"60:40, 57:43","2.0s, 1.5s",2023-07-18_18h09.12.725,Rewa's Exp,2023.1.2,59.98271298185268,
Countdown_1.5s.mp4,green,red,left,Countdown_1.5s.jpg,4,0,4,0,0,1,1,2,,,,,0,0,0,2,0,0,0,2,,,,,,,,459.8853225999992,461.2744279999988,1.3891053999996075,left,1,1.3649523000021873,None,33,60:40,1,,,,,,,,,,,,,,negar,1 - without skip,"60:40, 57:43","2.0s, 1.5s",2023-07-18_18h09.12.725,Rewa's Exp,2023.1.2,59.98271298185268,
Countdown_2s.mp4,green,red,left,Countdown_2s.jpg,4,0,4,0,0,2,2,3,,,,,0,0,0,2,0,0,0,2,,,,,,,,465.2012854000004,466.7746600999999,1.5733746999994764,left,1,1.5442423000004055,None,34,60:40,1,,,,,,,,,,,,,,negar,1 - without skip,"60:40, 57:43","2.0s, 1.5s",2023-07-18_18h09.12.725,Rewa's Exp,2023.1.2,59.98271298185268,
Countdown_1.5s.mp4,red,green,right,Countdown_1.5s.jpg,4,0,4,0,0,3,3,0,,,,,0,0,0,2,0,0,0,2,,,,,,,,470.71342340000047,472.02491419999933,1.3114907999988645,right,1,1.2798481000008906,None,35,60:40,1,,,,,,,,,,,,,,negar,1 - without skip,"60:40, 57:43","2.0s, 1.5s",2023-07-18_18h09.12.725,Rewa's Exp,2023.1.2,59.98271298185268,
Countdown_1.5s.mp4,green,red,left,Countdown_1.5s.jpg,4,0,4,0,1,0,4,2,,,,,0,0,0,2,0,0,0,2,,,,,,,,475.9865515999991,477.34112540000024,1.3545738000011625,left,1,1.3358795000003738,None,36,60:40,1,,,,,,,,,,,,,,negar,1 - without skip,"60:40, 57:43","2.0s, 1.5s",2023-07-18_18h09.12.725,Rewa's Exp,2023.1.2,59.98271298185268,
Countdown_2s.mp4,red,green,right,Countdown_2s.jpg,4,0,4,0,1,1,5,1,,,,,0,0,0,2,0,0,0,2,,,,,,,,481.3103934999999,483.1076918999988,1.7972983999989083,right,1,1.7708932000023196,None,37,60:40,1,,,,,,,,,,,,,,negar,1 - without skip,"60:40, 57:43","2.0s, 1.5s",2023-07-18_18h09.12.725,Rewa's Exp,2023.1.2,59.98271298185268,
Countdown_1.5s.mp4,red,green,right,Countdown_1.5s.jpg,4,0,4,0,1,2,6,0,,,,,0,0,0,2,0,0,0,2,,,,,,,,487.0438820999989,488.35800579999886,1.314123699999982,right,1,1.2850880000023608,None,38,60:40,1,,,,,,,,,,,,,,negar,1 - without skip,"60:40, 57:43","2.0s, 1.5s",2023-07-18_18h09.12.725,Rewa's Exp,2023.1.2,59.98271298185268,
Countdown_2s.mp4,green,red,left,Countdown_2s.jpg,4,0,4,0,1,3,7,3,,,,,0,0,0,2,0,0,0,2,,,,,,,,492.3215433000005,493.99156609999955,1.6700227999990602,left,1,1.6480451000006724,None,39,60:40,1,,,,,,,,,,,,,,negar,1 - without skip,"60:40, 57:43","2.0s, 1.5s",2023-07-18_18h09.12.725,Rewa's Exp,2023.1.2,59.98271298185268,
Countdown_1.5s.mp4,green,red,left,Countdown_1.5s.jpg,4,0,4,0,,,,,0,0,0,2,0,0,0,2,0,0,0,2,,,,,,,,497.91446449999967,499.16397809999944,1.2495135999997729,,,,,37,57:43,-2,503.7834079999993,right,0,1.2145405000010214,None,,,,,,,,,negar,1 - without skip,"60:40, 57:43","2.0s, 1.5s",2023-07-18_18h09.12.725,Rewa's Exp,2023.1.2,59.98271298185268,
Countdown_2s.mp4,red,green,right,Countdown_2s.jpg,4,0,4,0,,,,,0,1,1,1,0,0,0,2,0,0,0,2,,,,,,,,503.06913220000024,504.7243916999996,1.6552594999993744,,,,,35,57:43,-2,508.9380846999993,left,0,1.6373438000009628,None,,,,,,,,,negar,1 - without skip,"60:40, 57:43","2.0s, 1.5s",2023-07-18_18h09.12.725,Rewa's Exp,2023.1.2,59.98271298185268,
Countdown_1.5s.mp4,red,green,right,Countdown_1.5s.jpg,4,0,4,0,,,,,0,2,2,0,0,0,0,2,0,0,0,2,,,,,,,,508.6268258,509.7912202999996,1.1643944999996165,,,,,36,57:43,1,514.4958471999998,right,1,1.134302900001785,None,,,,,,,,,negar,1 - without skip,"60:40, 57:43","2.0s, 1.5s",2023-07-18_18h09.12.725,Rewa's Exp,2023.1.2,59.98271298185268,
Countdown_2s.mp4,green,red,left,Countdown_2s.jpg,4,0,4,0,,,,,0,3,3,3,0,0,0,2,0,0,0,2,,,,,,,,513.6978151999992,515.1909728999999,1.4931577000006655,,,,,37,57:43,1,519.5668357999984,left,1,1.4725374000008742,None,,,,,,,,,negar,1 - without skip,"60:40, 57:43","2.0s, 1.5s",2023-07-18_18h09.12.725,Rewa's Exp,2023.1.2,59.98271298185268,
Countdown_2s.mp4,green,red,left,Countdown_2s.jpg,4,0,4,0,,,,,1,0,4,3,0,0,0,2,0,0,0,2,,,,,,,,519.136802699999,520.5910800000001,1.4542773000011948,,,,,35,57:43,-2,525.0057946999987,right,0,1.4323876000016753,None,,,,,,,,,negar,1 - without skip,"60:40, 57:43","2.0s, 1.5s",2023-07-18_18h09.12.725,Rewa's Exp,2023.1.2,59.98271298185268,
Countdown_1.5s.mp4,red,green,right,Countdown_1.5s.jpg,4,0,4,0,,,,,1,1,5,0,0,0,0,2,0,0,0,2,,,,,,,,524.5035736999998,525.6244377999992,1.1208640999993804,,,,,33,57:43,-2,530.3723796999984,left,0,1.0902169000019057,None,,,,,,,,,negar,1 - without skip,"60:40, 57:43","2.0s, 1.5s",2023-07-18_18h09.12.725,Rewa's Exp,2023.1.2,59.98271298185268,
Countdown_1.5s.mp4,green,red,left,Countdown_1.5s.jpg,4,0,4,0,,,,,1,2,6,2,0,0,0,2,0,0,0,2,,,,,,,,529.5359006999988,530.7577096000005,1.2218089000016334,,,,,34,57:43,1,535.4049001999992,left,1,1.1940704000026017,None,,,,,,,,,negar,1 - without skip,"60:40, 57:43","2.0s, 1.5s",2023-07-18_18h09.12.725,Rewa's Exp,2023.1.2,59.98271298185268,
Countdown_2s.mp4,red,green,right,Countdown_2s.jpg,4,0,4,0,,,,,1,3,7,1,0,0,0,2,0,0,0,2,,,,,,,,534.653620699999,536.3577587999989,1.7041380999999092,,,,,35,57:43,1,540.5225654999995,right,1,1.6838349000008748,None,,,,,,,,,negar,1 - without skip,"60:40, 57:43","2.0s, 1.5s",2023-07-18_18h09.12.725,Rewa's Exp,2023.1.2,59.98271298185268,
Countdown_2s.mp4,red,green,right,Countdown_2s.jpg,4,0,4,0,,,,,,,,,0,0,0,3,0,0,0,1,,,,,,,,,,,,,,,,,,,,,,,543.3640548999992,543.3640548999992,543.3640548999992,543.3640548999992,space,11.114634000001388,,,negar,1 - without skip,"60:40, 57:43","2.0s, 1.5s",2023-07-18_18h09.12.725,Rewa's Exp,2023.1.2,59.98271298185268,
Countdown_1.5s.mp4,red,green,right,Countdown_1.5s.jpg,5,0,5,0,0,0,0,0,,,,,0,0,0,3,0,0,0,1,,,,,,,,551.4529977999991,552.940908999999,1.4879111999998713,None,0,,None,33,60:40,-2,,,,,,,,,,,,,,negar,1 - without skip,"60:40, 57:43","2.0s, 1.5s",2023-07-18_18h09.12.725,Rewa's Exp,2023.1.2,59.98271298185268,
Countdown_2s.mp4,green,red,left,Countdown_2s.jpg,5,0,5,0,0,1,1,3,,,,,0,0,0,3,0,0,0,1,,,,,,,,556.8457932000001,558.1585493000002,1.3127561000001151,left,1,1.292053200002556,None,34,60:40,1,,,,,,,,,,,,,,negar,1 - without skip,"60:40, 57:43","2.0s, 1.5s",2023-07-18_18h09.12.725,Rewa's Exp,2023.1.2,59.98271298185268,
Countdown_1.5s.mp4,green,red,left,Countdown_1.5s.jpg,5,0,5,0,0,2,2,2,,,,,0,0,0,3,0,0,0,1,,,,,,,,562.0878914000004,563.5576437,1.4697522999995272,left,1,1.4415759000003163,None,35,60:40,1,,,,,,,,,,,,,,negar,1 - without skip,"60:40, 57:43","2.0s, 1.5s",2023-07-18_18h09.12.725,Rewa's Exp,2023.1.2,59.98271298185268,
Countdown_2s.mp4,red,green,right,Countdown_2s.jpg,5,0,5,0,0,3,3,1,,,,,0,0,0,3,0,0,0,1,,,,,,,,567.4786231999988,569.1411970999998,1.6625739000010071,right,1,1.6436980000016774,None,36,60:40,1,,,,,,,,,,,,,,negar,1 - without skip,"60:40, 57:43","2.0s, 1.5s",2023-07-18_18h09.12.725,Rewa's Exp,2023.1.2,59.98271298185268,
Countdown_2s.mp4,red,green,right,Countdown_2s.jpg,5,0,5,0,1,0,4,1,,,,,0,0,0,3,0,0,0,1,,,,,,,,573.0359209999988,574.9743311999991,1.9384102000003622,right,1,1.9098451000008936,None,37,60:40,1,,,,,,,,,,,,,,negar,1 - without skip,"60:40, 57:43","2.0s, 1.5s",2023-07-18_18h09.12.725,Rewa's Exp,2023.1.2,59.98271298185268,
Countdown_1.5s.mp4,green,red,left,Countdown_1.5s.jpg,5,0,5,0,1,1,5,2,,,,,0,0,0,3,0,0,0,1,,,,,,,,578.8863899999997,580.1244083000001,1.2380183000004763,left,1,1.2107281000007788,None,38,60:40,1,,,,,,,,,,,,,,negar,1 - without skip,"60:40, 57:43","2.0s, 1.5s",2023-07-18_18h09.12.725,Rewa's Exp,2023.1.2,59.98271298185268,
Countdown_1.5s.mp4,red,green,right,Countdown_1.5s.jpg,5,0,5,0,1,2,6,0,,,,,0,0,0,3,0,0,0,1,,,,,,,,584.0451651000003,585.2910513999996,1.2458862999992562,right,1,1.2196063000010327,None,39,60:40,1,,,,,,,,,,,,,,negar,1 - without skip,"60:40, 57:43","2.0s, 1.5s",2023-07-18_18h09.12.725,Rewa's Exp,2023.1.2,59.98271298185268,
Countdown_2s.mp4,green,red,left,Countdown_2s.jpg,5,0,5,0,1,3,7,3,,,,,0,0,0,3,0,0,0,1,,,,,,,,589.205505599999,590.9743940999997,1.7688885000006849,left,1,1.739606700000877,None,40,60:40,1,,,,,,,,,,,,,,negar,1 - without skip,"60:40, 57:43","2.0s, 1.5s",2023-07-18_18h09.12.725,Rewa's Exp,2023.1.2,59.98271298185268,
Countdown_2s.mp4,green,red,left,Countdown_2s.jpg,5,0,5,0,,,,,0,0,0,3,0,0,0,3,0,0,0,1,,,,,,,,594.9168754000002,596.4741956999987,1.557320299998537,,,,,38,57:43,-2,600.785717499999,right,0,1.5330124000010983,None,,,,,,,,,negar,1 - without skip,"60:40, 57:43","2.0s, 1.5s",2023-07-18_18h09.12.725,Rewa's Exp,2023.1.2,59.98271298185268,
Countdown_1.5s.mp4,red,green,right,Countdown_1.5s.jpg,5,0,5,0,,,,,0,1,1,0,0,0,0,3,0,0,0,1,,,,,,,,600.4013782000002,601.8744836999995,1.473105499999292,,,,,39,57:43,1,606.2703985999997,right,1,1.4478881000013644,None,,,,,,,,,negar,1 - without skip,"60:40, 57:43","2.0s, 1.5s",2023-07-18_18h09.12.725,Rewa's Exp,2023.1.2,59.98271298185268,
Countdown_1.5s.mp4,green,red,left,Countdown_1.5s.jpg,5,0,5,0,,,,,0,2,2,2,0,0,0,3,0,0,0,1,,,,,,,,605.7852445999997,607.0578370000003,1.2725924000005762,,,,,40,57:43,1,611.6541255999982,left,1,1.23974090000047,None,,,,,,,,,negar,1 - without skip,"60:40, 57:43","2.0s, 1.5s",2023-07-18_18h09.12.725,Rewa's Exp,2023.1.2,59.98271298185268,
Countdown_2s.mp4,red,green,right,Countdown_2s.jpg,5,0,5,0,,,,,0,3,3,1,0,0,0,3,0,0,0,1,,,,,,,,611.0195504000003,612.5242665000005,1.5047161000002234,,,,,41,57:43,1,616.8884384999983,right,1,1.486187600001358,None,,,,,,,,,negar,1 - without skip,"60:40, 57:43","2.0s, 1.5s",2023-07-18_18h09.12.725,Rewa's Exp,2023.1.2,59.98271298185268,
Countdown_2s.mp4,green,red,left,Countdown_2s.jpg,5,0,5,0,,,,,1,0,4,3,0,0,0,3,0,0,0,1,,,,,,,,616.4274893000002,617.9579448999993,1.5304555999991862,,,,,42,57:43,1,622.2963631999992,left,1,1.5023166999999376,None,,,,,,,,,negar,1 - without skip,"60:40, 57:43","2.0s, 1.5s",2023-07-18_18h09.12.725,Rewa's Exp,2023.1.2,59.98271298185268,
Countdown_1.5s.mp4,red,green,right,Countdown_1.5s.jpg,5,0,5,0,,,,,1,1,5,0,0,0,0,3,0,0,0,1,,,,,,,,621.8891647,623.2743434999993,1.3851787999992666,,,,,43,57:43,1,627.7582226999984,right,1,1.359517800001413,None,,,,,,,,,negar,1 - without skip,"60:40, 57:43","2.0s, 1.5s",2023-07-18_18h09.12.725,Rewa's Exp,2023.1.2,59.98271298185268,
Countdown_1.5s.mp4,green,red,left,Countdown_1.5s.jpg,5,0,5,0,,,,,1,2,6,2,0,0,0,3,0,0,0,1,,,,,,,,627.2158651999998,628.5910138999989,1.3751486999990448,,,,,44,57:43,1,633.0848979999992,left,1,1.3538622000014584,None,,,,,,,,,negar,1 - without skip,"60:40, 57:43","2.0s, 1.5s",2023-07-18_18h09.12.725,Rewa's Exp,2023.1.2,59.98271298185268,
Countdown_2s.mp4,red,green,right,Countdown_2s.jpg,5,0,5,0,,,,,1,3,7,1,0,0,0,3,0,0,0,1,,,,,,,,632.4909296999995,634.174284499999,1.6833547999995062,,,,,45,57:43,1,638.3598386999984,right,1,1.6538698000022123,None,,,,,,,,,negar,1 - without skip,"60:40, 57:43","2.0s, 1.5s",2023-07-18_18h09.12.725,Rewa's Exp,2023.1.2,59.98271298185268,
Countdown_1.5s.mp4,green,red,left,Countdown_1.5s.jpg,5,0,5,0,,,,,,,,,0,0,0,2,0,0,0,2,,,,,,,,,,,,,,,,,,,,,,,641.2082505999988,641.2082505999988,641.2082505999988,641.2082505999988,space,3.701291300001685,,,negar,1 - without skip,"60:40, 57:43","2.0s, 1.5s",2023-07-18_18h09.12.725,Rewa's Exp,2023.1.2,59.98271298185268,
Countdown_2s.mp4,red,green,right,Countdown_2s.jpg,6,0,6,0,0,0,0,1,,,,,0,0,0,2,0,0,0,2,,,,,,,,641.8776595999989,643.7241961999989,1.8465366000000358,right,1,1.8277567000004638,None,46,60:40,1,,,,,,,,,,,,,,negar,1 - without skip,"60:40, 57:43","2.0s, 1.5s",2023-07-18_18h09.12.725,Rewa's Exp,2023.1.2,59.98271298185268,
Countdown_1.5s.mp4,red,green,right,Countdown_1.5s.jpg,6,0,6,0,0,1,1,0,,,,,0,0,0,2,0,0,0,2,,,,,,,,647.6170504999991,648.7743167999997,1.1572663000006287,right,1,1.1365070000010746,None,47,60:40,1,,,,,,,,,,,,,,negar,1 - without skip,"60:40, 57:43","2.0s, 1.5s",2023-07-18_18h09.12.725,Rewa's Exp,2023.1.2,59.98271298185268,
Countdown_2s.mp4,green,red,left,Countdown_2s.jpg,6,0,6,0,0,2,2,3,,,,,0,0,0,2,0,0,0,2,,,,,,,,652.6790209999999,654.6578522,1.9788312000000587,left,1,1.9462880000010045,None,48,60:40,1,,,,,,,,,,,,,,negar,1 - without skip,"60:40, 57:43","2.0s, 1.5s",2023-07-18_18h09.12.725,Rewa's Exp,2023.1.2,59.98271298185268,
Countdown_1.5s.mp4,green,red,left,Countdown_1.5s.jpg,6,0,6,0,0,3,3,2,,,,,0,0,0,2,0,0,0,2,,,,,,,,658.5727038999994,659.9577162999994,1.3850124000000505,left,1,1.3658050000012736,None,49,60:40,1,,,,,,,,,,,,,,negar,1 - without skip,"60:40, 57:43","2.0s, 1.5s",2023-07-18_18h09.12.725,Rewa's Exp,2023.1.2,59.98271298185268,
Countdown_1.5s.mp4,red,green,right,Countdown_1.5s.jpg,6,0,6,0,1,0,4,0,,,,,0,0,0,2,0,0,0,2,,,,,,,,663.8700052999993,665.1412505999997,1.2712453000003734,left,0,1.2511225000016566,None,47,60:40,-2,,,,,,,,,,,,,,negar,1 - without skip,"60:40, 57:43","2.0s, 1.5s",2023-07-18_18h09.12.725,Rewa's Exp,2023.1.2,59.98271298185268,
Countdown_2s.mp4,red,green,right,Countdown_2s.jpg,6,0,6,0,1,1,5,1,,,,,0,0,0,2,0,0,0,2,,,,,,,,669.0783109000004,670.6242220000004,1.545911100000012,right,1,1.522309200001473,None,48,60:40,1,,,,,,,,,,,,,,negar,1 - without skip,"60:40, 57:43","2.0s, 1.5s",2023-07-18_18h09.12.725,Rewa's Exp,2023.1.2,59.98271298185268,
Countdown_1.5s.mp4,green,red,left,Countdown_1.5s.jpg,6,0,6,0,1,2,6,2,,,,,0,0,0,2,0,0,0,2,,,,,,,,674.5523410999995,675.9079246000001,1.3555835000006482,left,1,1.328253500001665,None,49,60:40,1,,,,,,,,,,,,,,negar,1 - without skip,"60:40, 57:43","2.0s, 1.5s",2023-07-18_18h09.12.725,Rewa's Exp,2023.1.2,59.98271298185268,
Countdown_2s.mp4,green,red,left,Countdown_2s.jpg,6,0,6,0,1,3,7,3,,,,,0,0,0,2,0,0,0,2,,,,,,,,679.8679474,681.8416395999993,1.9736921999992774,None,0,,None,47,60:40,-2,,,,,,,,,,,,,,negar,1 - without skip,"60:40, 57:43","2.0s, 1.5s",2023-07-18_18h09.12.725,Rewa's Exp,2023.1.2,59.98271298185268,
Countdown_2s.mp4,green,red,left,Countdown_2s.jpg,6,0,6,0,,,,,0,0,0,3,0,0,0,2,0,0,0,2,,,,,,,,685.7917851000002,687.6908903999993,1.8991052999990643,,,,,48,57:43,1,691.6607302999982,left,1,1.87449160000142,None,,,,,,,,,negar,1 - without skip,"60:40, 57:43","2.0s, 1.5s",2023-07-18_18h09.12.725,Rewa's Exp,2023.1.2,59.98271298185268,
Countdown_1.5s.mp4,green,red,left,Countdown_1.5s.jpg,6,0,6,0,,,,,0,1,1,2,0,0,0,2,0,0,0,2,,,,,,,,691.5905423999993,692.9241824000001,1.3336400000007416,,,,,49,57:43,1,697.4594664999986,left,1,1.3071357000007993,None,,,,,,,,,negar,1 - without skip,"60:40, 57:43","2.0s, 1.5s",2023-07-18_18h09.12.725,Rewa's Exp,2023.1.2,59.98271298185268,
Countdown_2s.mp4,red,green,right,Countdown_2s.jpg,6,0,6,0,,,,,0,2,2,1,0,0,0,2,0,0,0,2,,,,,,,,696.8261070999997,698.6575749999993,1.8314678999995522,,,,,50,57:43,1,702.6949729999997,right,1,1.8146800000013172,None,,,,,,,,,negar,1 - without skip,"60:40, 57:43","2.0s, 1.5s",2023-07-18_18h09.12.725,Rewa's Exp,2023.1.2,59.98271298185268,
Countdown_1.5s.mp4,red,green,right,Countdown_1.5s.jpg,6,0,6,0,,,,,0,3,3,0,0,0,0,2,0,0,0,2,,,,,,,,702.5831323000002,704.0079136999993,1.4247813999991195,,,,,48,57:43,-2,708.4521335999998,left,0,1.4032424000015453,None,,,,,,,,,negar,1 - without skip,"60:40, 57:43","2.0s, 1.5s",2023-07-18_18h09.12.725,Rewa's Exp,2023.1.2,59.98271298185268,
Countdown_2s.mp4,green,red,left,Countdown_2s.jpg,6,0,6,0,,,,,1,0,4,3,0,0,0,2,0,0,0,2,,,,,,,,707.9246975999995,709.2906877000005,1.3659901000009995,,,,,49,57:43,1,713.7934057999992,left,1,1.3414644000004046,None,,,,,,,,,negar,1 - without skip,"60:40, 57:43","2.0s, 1.5s",2023-07-18_18h09.12.725,Rewa's Exp,2023.1.2,59.98271298185268,
Countdown_2s.mp4,red,green,right,Countdown_2s.jpg,6,0,6,0,,,,,1,1,5,1,0,0,0,2,0,0,0,2,,,,,,,,713.1952786000002,714.9416438999997,1.7463652999995247,,,,,50,57:43,1,719.0642666999993,right,1,1.7259474000002228,None,,,,,,,,,negar,1 - without skip,"60:40, 57:43","2.0s, 1.5s",2023-07-18_18h09.12.725,Rewa's Exp,2023.1.2,59.98271298185268,
Countdown_1.5s.mp4,green,red,left,Countdown_1.5s.jpg,6,0,6,0,,,,,1,2,6,2,0,0,0,2,0,0,0,2,,,,,,,,718.8733663000003,720.2407547000003,1.3673883999999816,,,,,51,57:43,1,724.7423699999999,left,1,1.3352923000020382,None,,,,,,,,,negar,1 - without skip,"60:40, 57:43","2.0s, 1.5s",2023-07-18_18h09.12.725,Rewa's Exp,2023.1.2,59.98271298185268,
Countdown_1.5s.mp4,red,green,right,Countdown_1.5s.jpg,6,0,6,0,,,,,1,3,7,0,0,0,0,2,0,0,0,2,,,,,,,,724.1480897000001,725.3576636999987,1.2095739999986108,,,,,52,57:43,1,730.0170439999984,right,1,1.1898586000006617,None,,,,,,,,,negar,1 - without skip,"60:40, 57:43","2.0s, 1.5s",2023-07-18_18h09.12.725,Rewa's Exp,2023.1.2,59.98271298185268,
Countdown_2s.mp4,red,green,right,Countdown_2s.jpg,6,0,6,0,,,,,,,,,0,0,0,1,0,0,0,1,,,,,,,,,,,,,,,,,,,,,,,732.3623492999996,732.3623492999996,732.3623492999996,732.3623492999996,space,2.795188700001745,,,negar,1 - without skip,"60:40, 57:43","2.0s, 1.5s",2023-07-18_18h09.12.725,Rewa's Exp,2023.1.2,59.98271298185268,
Countdown_2s.mp4,green,red,left,Countdown_2s.jpg,7,0,7,0,0,0,0,3,,,,,0,0,0,1,0,0,0,1,,,,,,,,732.0971281999991,733.7906955999988,1.6935673999996652,left,1,1.663888400002179,None,53,60:40,1,,,,,,,,,,,,,,negar,1 - without skip,"60:40, 57:43","2.0s, 1.5s",2023-07-18_18h09.12.725,Rewa's Exp,2023.1.2,59.98271298185268,
Countdown_1.5s.mp4,red,green,right,Countdown_1.5s.jpg,7,0,7,0,0,1,1,0,,,,,0,0,0,1,0,0,0,1,,,,,,,,737.741506299999,739.1075552999991,1.3660490000002028,right,1,1.3482356000022264,None,54,60:40,1,,,,,,,,,,,,,,negar,1 - without skip,"60:40, 57:43","2.0s, 1.5s",2023-07-18_18h09.12.725,Rewa's Exp,2023.1.2,59.98271298185268,
Countdown_1.5s.mp4,green,red,left,Countdown_1.5s.jpg,7,0,7,0,0,2,2,2,,,,,0,0,0,1,0,0,0,1,,,,,,,,743.0203820999996,744.5074748999996,1.4870928000000276,left,1,1.4697735000008834,None,55,60:40,1,,,,,,,,,,,,,,negar,1 - without skip,"60:40, 57:43","2.0s, 1.5s",2023-07-18_18h09.12.725,Rewa's Exp,2023.1.2,59.98271298185268,
Countdown_2s.mp4,red,green,right,Countdown_2s.jpg,7,0,7,0,0,3,3,1,,,,,0,0,0,1,0,0,0,1,,,,,,,,748.4169681999992,750.0577615999991,1.6407933999998932,right,1,1.6166537999997672,None,56,60:40,1,,,,,,,,,,,,,,negar,1 - without skip,"60:40, 57:43","2.0s, 1.5s",2023-07-18_18h09.12.725,Rewa's Exp,2023.1.2,59.98271298185268,
Countdown_2s.mp4,red,green,right,Countdown_2s.jpg,7,0,7,0,1,0,4,1,,,,,0,0,0,1,0,0,0,1,,,,,,,,753.9604588999991,755.4577589,1.4973000000009051,right,1,1.4799330000005284,None,57,60:40,1,,,,,,,,,,,,,,negar,1 - without skip,"60:40, 57:43","2.0s, 1.5s",2023-07-18_18h09.12.725,Rewa's Exp,2023.1.2,59.98271298185268,
Countdown_2s.mp4,green,red,left,Countdown_2s.jpg,7,0,7,0,1,1,5,3,,,,,0,0,0,1,0,0,0,1,,,,,,,,759.3534208000001,761.2907959999993,1.9373751999992237,left,1,1.9197143000019423,None,58,60:40,1,,,,,,,,,,,,,,negar,1 - without skip,"60:40, 57:43","2.0s, 1.5s",2023-07-18_18h09.12.725,Rewa's Exp,2023.1.2,59.98271298185268,
Countdown_1.5s.mp4,green,red,left,Countdown_1.5s.jpg,7,0,7,0,1,2,6,2,,,,,0,0,0,1,0,0,0,1,,,,,,,,765.1991032999995,766.5575566999996,1.358453400000144,left,1,1.3291335000012623,None,59,60:40,1,,,,,,,,,,,,,,negar,1 - without skip,"60:40, 57:43","2.0s, 1.5s",2023-07-18_18h09.12.725,Rewa's Exp,2023.1.2,59.98271298185268,
Countdown_1.5s.mp4,red,green,right,Countdown_1.5s.jpg,7,0,7,0,1,3,7,0,,,,,0,0,0,1,0,0,0,1,,,,,,,,770.4869799999997,771.9742279000002,1.4872479000005114,None,0,,None,57,60:40,-2,,,,,,,,,,,,,,negar,1 - without skip,"60:40, 57:43","2.0s, 1.5s",2023-07-18_18h09.12.725,Rewa's Exp,2023.1.2,59.98271298185268,
Countdown_2s.mp4,red,green,right,Countdown_2s.jpg,7,0,7,0,,,,,0,0,0,1,0,0,0,1,0,0,0,1,,,,,,,,775.9293183999998,777.7907400999993,1.8614216999994824,,,,,58,57:43,1,781.7977708999988,right,1,1.8405416000023251,None,,,,,,,,,negar,1 - without skip,"60:40, 57:43","2.0s, 1.5s",2023-07-18_18h09.12.725,Rewa's Exp,2023.1.2,59.98271298185268,
Countdown_2s.mp4,green,red,left,Countdown_2s.jpg,7,0,7,0,,,,,0,1,1,3,0,0,0,1,0,0,0,1,,,,,,,,781.7225861999996,783.6241546000001,1.9015684000005422,,,,,59,57:43,1,787.5916104999997,left,1,1.8779420999999274,None,,,,,,,,,negar,1 - without skip,"60:40, 57:43","2.0s, 1.5s",2023-07-18_18h09.12.725,Rewa's Exp,2023.1.2,59.98271298185268,
Countdown_1.5s.mp4,green,red,left,Countdown_1.5s.jpg,7,0,7,0,,,,,0,2,2,2,0,0,0,1,0,0,0,1,,,,,,,,787.5192537999992,788.8408233999999,1.3215696000006574,,,,,60,57:43,1,793.3882467999993,left,1,1.2892769000009139,None,,,,,,,,,negar,1 - without skip,"60:40, 57:43","2.0s, 1.5s",2023-07-18_18h09.12.725,Rewa's Exp,2023.1.2,59.98271298185268,
Countdown_1.5s.mp4,red,green,right,Countdown_1.5s.jpg,7,0,7,0,,,,,0,3,3,0,0,0,0,1,0,0,0,1,,,,,,,,792.7737789000003,794.0909297999988,1.3171508999985235,,,,,61,57:43,1,798.6427173999982,right,1,1.2916640000021289,None,,,,,,,,,negar,1 - without skip,"60:40, 57:43","2.0s, 1.5s",2023-07-18_18h09.12.725,Rewa's Exp,2023.1.2,59.98271298185268,
Countdown_1.5s.mp4,red,green,right,Countdown_1.5s.jpg,7,0,7,0,,,,,1,0,4,0,0,0,0,1,0,0,0,1,,,,,,,,798.0070280999989,799.4907738999991,1.4837458000001789,,,,,62,57:43,1,803.8758823999997,right,1,1.4660531000008632,None,,,,,,,,,negar,1 - without skip,"60:40, 57:43","2.0s, 1.5s",2023-07-18_18h09.12.725,Rewa's Exp,2023.1.2,59.98271298185268,
Countdown_2s.mp4,red,green,right,Countdown_2s.jpg,7,0,7,0,,,,,1,1,5,1,0,0,0,1,0,0,0,1,,,,,,,,803.3944178999991,805.1909668999997,1.7965490000005957,,,,,63,57:43,1,809.2634753999992,right,1,1.774493300001268,None,,,,,,,,,negar,1 - without skip,"60:40, 57:43","2.0s, 1.5s",2023-07-18_18h09.12.725,Rewa's Exp,2023.1.2,59.98271298185268,
Countdown_1.5s.mp4,green,red,left,Countdown_1.5s.jpg,7,0,7,0,,,,,1,2,6,2,0,0,0,1,0,0,0,1,,,,,,,,809.1473449000005,810.4579264000004,1.3105814999998984,,,,,64,57:43,1,815.0162686999993,left,1,1.2859793000006903,None,,,,,,,,,negar,1 - without skip,"60:40, 57:43","2.0s, 1.5s",2023-07-18_18h09.12.725,Rewa's Exp,2023.1.2,59.98271298185268,
Countdown_2s.mp4,green,red,left,Countdown_2s.jpg,7,0,7,0,,,,,1,3,7,3,0,0,0,1,0,0,0,1,,,,,,,,814.4352825999995,816.2408636,1.8055810000005295,,,,,62,57:43,-2,820.3042208999996,right,0,1.7827668000008998,None,,,,,,,,,negar,1 - without skip,"60:40, 57:43","2.0s, 1.5s",2023-07-18_18h09.12.725,Rewa's Exp,2023.1.2,59.98271298185268,
Countdown_1.5s.mp4,red,green,right,Countdown_1.5s.jpg,7,0,7,0,,,,,,,,,0,0,0,1,0,0,0,0,,,,,,,,,,,,,,,,,,,,,,,823.2709585999983,823.2709585999983,823.2709585999983,823.2709585999983,space,10.14391390000128,,,negar,1 - without skip,"60:40, 57:43","2.0s, 1.5s",2023-07-18_18h09.12.725,Rewa's Exp,2023.1.2,59.98271298185268,
Countdown_2s.mp4,green,red,left,Countdown_2s.jpg,8,0,8,0,0,0,0,3,,,,,0,0,0,1,0,0,0,0,,,,,,,,830.3176647,832.1240268000001,1.8063621000001149,left,1,1.7880428000007669,None,63,60:40,1,,,,,,,,,,,,,,negar,1 - without skip,"60:40, 57:43","2.0s, 1.5s",2023-07-18_18h09.12.725,Rewa's Exp,2023.1.2,59.98271298185268,
Countdown_1.5s.mp4,red,green,right,Countdown_1.5s.jpg,8,0,8,0,0,1,1,0,,,,,0,0,0,1,0,0,0,0,,,,,,,,836.0528627000003,837.5074282999994,1.454565599999114,right,1,1.4369051000012405,None,64,60:40,1,,,,,,,,,,,,,,negar,1 - without skip,"60:40, 57:43","2.0s, 1.5s",2023-07-18_18h09.12.725,Rewa's Exp,2023.1.2,59.98271298185268,
Countdown_2s.mp4,red,green,right,Countdown_2s.jpg,8,0,8,0,0,2,2,1,,,,,0,0,0,1,0,0,0,0,,,,,,,,841.4153119000002,842.9075317999996,1.492219899999327,right,1,1.4651399000013043,None,65,60:40,1,,,,,,,,,,,,,,negar,1 - without skip,"60:40, 57:43","2.0s, 1.5s",2023-07-18_18h09.12.725,Rewa's Exp,2023.1.2,59.98271298185268,
Countdown_1.5s.mp4,green,red,left,Countdown_1.5s.jpg,8,0,8,0,0,3,3,2,,,,,0,0,0,1,0,0,0,0,,,,,,,,846.8602456999997,848.1742467999993,1.3140010999995866,left,1,1.2841306000009354,None,66,60:40,1,,,,,,,,,,,,,,negar,1 - without skip,"60:40, 57:43","2.0s, 1.5s",2023-07-18_18h09.12.725,Rewa's Exp,2023.1.2,59.98271298185268,
Countdown_2s.mp4,green,red,left,Countdown_2s.jpg,8,0,8,0,1,0,4,3,,,,,0,0,0,1,0,0,0,0,,,,,,,,852.1503916999991,854.0575854999988,1.9071937999997317,left,1,1.8900773000004847,None,67,60:40,1,,,,,,,,,,,,,,negar,1 - without skip,"60:40, 57:43","2.0s, 1.5s",2023-07-18_18h09.12.725,Rewa's Exp,2023.1.2,59.98271298185268,
Countdown_2s.mp4,red,green,right,Countdown_2s.jpg,8,0,8,0,1,1,5,1,,,,,0,0,0,1,0,0,0,0,,,,,,,,857.9344724000002,859.6407257999999,1.7062533999996958,right,1,1.682689000001119,None,68,60:40,1,,,,,,,,,,,,,,negar,1 - without skip,"60:40, 57:43","2.0s, 1.5s",2023-07-18_18h09.12.725,Rewa's Exp,2023.1.2,59.98271298185268,
Countdown_1.5s.mp4,red,green,right,Countdown_1.5s.jpg,8,0,8,0,1,2,6,0,,,,,0,0,0,1,0,0,0,0,,,,,,,,863.5315374999991,864.8573992000001,1.3258617000010418,right,1,1.3017405000009603,None,69,60:40,1,,,,,,,,,,,,,,negar,1 - without skip,"60:40, 57:43","2.0s, 1.5s",2023-07-18_18h09.12.725,Rewa's Exp,2023.1.2,59.98271298185268,
Countdown_1.5s.mp4,green,red,left,Countdown_1.5s.jpg,8,0,8,0,1,3,7,2,,,,,0,0,0,1,0,0,0,0,,,,,,,,868.8023489999996,870.0238516999998,1.221502700000201,left,1,1.1900018000014825,None,70,60:40,1,,,,,,,,,,,,,,negar,1 - without skip,"60:40, 57:43","2.0s, 1.5s",2023-07-18_18h09.12.725,Rewa's Exp,2023.1.2,59.98271298185268,
Countdown_2s.mp4,green,red,left,Countdown_2s.jpg,8,0,8,0,,,,,0,0,0,3,0,0,0,1,0,0,0,0,,,,,,,,873.9454391999989,875.5745798999997,1.6291407000007894,,,,,71,57:43,1,879.8145141999994,left,1,1.6075357999998232,None,,,,,,,,,negar,1 - without skip,"60:40, 57:43","2.0s, 1.5s",2023-07-18_18h09.12.725,Rewa's Exp,2023.1.2,59.98271298185268,
Countdown_1.5s.mp4,green,red,left,Countdown_1.5s.jpg,8,0,8,0,,,,,0,1,1,2,0,0,0,1,0,0,0,0,,,,,,,,879.5244278999999,880.7239709999994,1.1995430999995733,,,,,72,57:43,1,885.3933723999999,left,1,1.1724664000012126,None,,,,,,,,,negar,1 - without skip,"60:40, 57:43","2.0s, 1.5s",2023-07-18_18h09.12.725,Rewa's Exp,2023.1.2,59.98271298185268,
Countdown_1.5s.mp4,red,green,right,Countdown_1.5s.jpg,8,0,8,0,,,,,0,2,2,0,0,0,0,1,0,0,0,0,,,,,,,,884.6290222999996,885.7907615999993,1.161739299999681,,,,,73,57:43,1,890.4979851999997,right,1,1.1397450000004028,None,,,,,,,,,negar,1 - without skip,"60:40, 57:43","2.0s, 1.5s",2023-07-18_18h09.12.725,Rewa's Exp,2023.1.2,59.98271298185268,
Countdown_2s.mp4,red,green,right,Countdown_2s.jpg,8,0,8,0,,,,,0,3,3,1,0,0,0,1,0,0,0,0,,,,,,,,889.6931470999989,891.4740896999992,1.780942600000344,,,,,74,57:43,1,895.5621615,right,1,1.7491407000015897,None,,,,,,,,,negar,1 - without skip,"60:40, 57:43","2.0s, 1.5s",2023-07-18_18h09.12.725,Rewa's Exp,2023.1.2,59.98271298185268,
Countdown_2s.mp4,red,green,right,Countdown_2s.jpg,8,0,8,0,,,,,1,0,4,1,0,0,0,1,0,0,0,0,,,,,,,,895.3758877,897.0406138999988,1.6647261999987677,,,,,75,57:43,1,901.2449095999982,right,1,1.6324570000015228,None,,,,,,,,,negar,1 - without skip,"60:40, 57:43","2.0s, 1.5s",2023-07-18_18h09.12.725,Rewa's Exp,2023.1.2,59.98271298185268,
Countdown_1.5s.mp4,green,red,left,Countdown_1.5s.jpg,8,0,8,0,,,,,1,1,5,2,0,0,0,1,0,0,0,0,,,,,,,,900.9330047000003,902.2739973999996,1.3409926999993331,,,,,76,57:43,1,906.8019767999995,left,1,1.308303200001319,None,,,,,,,,,negar,1 - without skip,"60:40, 57:43","2.0s, 1.5s",2023-07-18_18h09.12.725,Rewa's Exp,2023.1.2,59.98271298185268,
Countdown_1.5s.mp4,red,green,right,Countdown_1.5s.jpg,8,0,8,0,,,,,1,2,6,0,0,0,0,1,0,0,0,0,,,,,,,,906.1792974,907.2076261000002,1.028328700000202,,,,,77,57:43,1,912.0482683999999,right,1,1.0050864000004367,None,,,,,,,,,negar,1 - without skip,"60:40, 57:43","2.0s, 1.5s",2023-07-18_18h09.12.725,Rewa's Exp,2023.1.2,59.98271298185268,
Countdown_2s.mp4,green,red,left,Countdown_2s.jpg,8,0,8,0,,,,,1,3,7,3,0,0,0,1,0,0,0,0,,,,,,,,911.1344456999996,912.8909368000004,1.7564911000008578,,,,,78,57:43,1,917.0034435999987,left,1,1.7382174000013038,None,,,,,,,,,negar,1 - without skip,"60:40, 57:43","2.0s, 1.5s",2023-07-18_18h09.12.725,Rewa's Exp,2023.1.2,59.98271298185268,
Countdown_2s.mp4,green,red,left,Countdown_2s.jpg,8,0,8,0,,,,,,,,,0,0,0,0,0,0,0,3,,,,,,,,,,,,,,,,,,,,,,,919.9240363999997,919.9240363999997,919.9240363999997,919.9240363999997,space,1.898106500000722,,,negar,1 - without skip,"60:40, 57:43","2.0s, 1.5s",2023-07-18_18h09.12.725,Rewa's Exp,2023.1.2,59.98271298185268,
Countdown_2s.mp4,green,red,left,Countdown_2s.jpg,9,0,9,0,0,0,0,3,,,,,0,0,0,0,0,0,0,3,,,,,,,,918.7659079000005,920.3578462999994,1.5919383999989805,left,1,1.5708852000007028,None,79,60:40,1,,,,,,,,,,,,,,negar,1 - without skip,"60:40, 57:43","2.0s, 1.5s",2023-07-18_18h09.12.725,Rewa's Exp,2023.1.2,59.98271298185268,
Countdown_2s.mp4,red,green,right,Countdown_2s.jpg,9,0,9,0,0,1,1,1,,,,,0,0,0,0,0,0,0,3,,,,,,,,924.3233693999991,926.2072874999994,1.883918100000301,right,1,1.8526922000000923,None,80,60:40,1,,,,,,,,,,,,,,negar,1 - without skip,"60:40, 57:43","2.0s, 1.5s",2023-07-18_18h09.12.725,Rewa's Exp,2023.1.2,59.98271298185268,
Countdown_1.5s.mp4,red,green,right,Countdown_1.5s.jpg,9,0,9,0,0,2,2,0,,,,,0,0,0,0,0,0,0,3,,,,,,,,930.1384875999993,931.5740117000005,1.435524100001203,right,1,1.4063027000011061,None,81,60:40,1,,,,,,,,,,,,,,negar,1 - without skip,"60:40, 57:43","2.0s, 1.5s",2023-07-18_18h09.12.725,Rewa's Exp,2023.1.2,59.98271298185268,
Countdown_1.5s.mp4,green,red,left,Countdown_1.5s.jpg,9,0,9,0,0,3,3,2,,,,,0,0,0,0,0,0,0,3,,,,,,,,935.526550999999,936.9072643,1.3807133000009344,left,1,1.354530500000692,None,82,60:40,1,,,,,,,,,,,,,,negar,1 - without skip,"60:40, 57:43","2.0s, 1.5s",2023-07-18_18h09.12.725,Rewa's Exp,2023.1.2,59.98271298185268,
Countdown_2s.mp4,red,green,right,Countdown_2s.jpg,9,0,9,0,1,0,4,1,,,,,0,0,0,0,0,0,0,3,,,,,,,,940.7945402000005,942.7740474000002,1.9795071999997162,None,0,,None,80,60:40,-2,,,,,,,,,,,,,,negar,1 - without skip,"60:40, 57:43","2.0s, 1.5s",2023-07-18_18h09.12.725,Rewa's Exp,2023.1.2,59.98271298185268,
Countdown_1.5s.mp4,red,green,right,Countdown_1.5s.jpg,9,0,9,0,1,1,5,0,,,,,0,0,0,0,0,0,0,3,,,,,,,,946.6709633999999,947.7906222999991,1.1196588999991945,left,0,1.0891495000014402,None,78,60:40,-2,,,,,,,,,,,,,,negar,1 - without skip,"60:40, 57:43","2.0s, 1.5s",2023-07-18_18h09.12.725,Rewa's Exp,2023.1.2,59.98271298185268,
Countdown_1.5s.mp4,green,red,left,Countdown_1.5s.jpg,9,0,9,0,1,2,6,2,,,,,0,0,0,0,0,0,0,3,,,,,,,,951.7077625999991,952.7907140999996,1.0829515000004903,left,1,1.0613411000013002,None,79,60:40,1,,,,,,,,,,,,,,negar,1 - without skip,"60:40, 57:43","2.0s, 1.5s",2023-07-18_18h09.12.725,Rewa's Exp,2023.1.2,59.98271298185268,
Countdown_2s.mp4,green,red,left,Countdown_2s.jpg,9,0,9,0,1,3,7,3,,,,,0,0,0,0,0,0,0,3,,,,,,,,956.7150564000003,958.4738775000005,1.7588211000002048,left,1,1.7342565000017203,None,80,60:40,1,,,,,,,,,,,,,,negar,1 - without skip,"60:40, 57:43","2.0s, 1.5s",2023-07-18_18h09.12.725,Rewa's Exp,2023.1.2,59.98271298185268,
Countdown_1.5s.mp4,green,red,left,Countdown_1.5s.jpg,9,0,9,0,,,,,0,0,0,2,0,0,0,0,0,0,0,3,,,,,,,,962.403415499999,963.6907023000003,1.2872868000013113,,,,,78,57:43,-2,968.2723841999996,right,0,1.2702982000009797,None,,,,,,,,,negar,1 - without skip,"60:40, 57:43","2.0s, 1.5s",2023-07-18_18h09.12.725,Rewa's Exp,2023.1.2,59.98271298185268,
Countdown_2s.mp4,red,green,right,Countdown_2s.jpg,9,0,9,0,,,,,0,1,1,1,0,0,0,0,0,0,0,3,,,,,,,,967.6015227999997,969.2573852000005,1.6558624000008422,,,,,79,57:43,1,973.4705002999999,right,1,1.6389945000028092,None,,,,,,,,,negar,1 - without skip,"60:40, 57:43","2.0s, 1.5s",2023-07-18_18h09.12.725,Rewa's Exp,2023.1.2,59.98271298185268,
Countdown_2s.mp4,green,red,left,Countdown_2s.jpg,9,0,9,0,,,,,0,2,2,3,0,0,0,0,0,0,0,3,,,,,,,,973.1530234999991,974.7573716999996,1.6043482000004587,,,,,80,57:43,1,979.0220477999992,left,1,1.5838458000016544,None,,,,,,,,,negar,1 - without skip,"60:40, 57:43","2.0s, 1.5s",2023-07-18_18h09.12.725,Rewa's Exp,2023.1.2,59.98271298185268,
Countdown_1.5s.mp4,red,green,right,Countdown_1.5s.jpg,9,0,9,0,,,,,0,3,3,0,0,0,0,0,0,0,0,3,,,,,,,,978.6731197999998,979.990744499999,1.3176246999992145,,,,,81,57:43,1,984.5420677999991,right,1,1.295690500001001,None,,,,,,,,,negar,1 - without skip,"60:40, 57:43","2.0s, 1.5s",2023-07-18_18h09.12.725,Rewa's Exp,2023.1.2,59.98271298185268,
Countdown_2s.mp4,red,green,right,Countdown_2s.jpg,9,0,9,0,,,,,1,0,4,1,0,0,0,0,0,0,0,3,,,,,,,,983.9220160999994,985.6904684000001,1.7684523000007175,,,,,82,57:43,1,989.7910385999985,right,1,1.7425391000015225,None,,,,,,,,,negar,1 - without skip,"60:40, 57:43","2.0s, 1.5s",2023-07-18_18h09.12.725,Rewa's Exp,2023.1.2,59.98271298185268,
Countdown_1.5s.mp4,green,red,left,Countdown_1.5s.jpg,9,0,9,0,,,,,1,1,5,2,0,0,0,0,0,0,0,3,,,,,,,,989.6225150999999,990.8408483999992,1.2183332999993581,,,,,83,57:43,1,995.4914486999987,left,1,1.1953538000016124,None,,,,,,,,,negar,1 - without skip,"60:40, 57:43","2.0s, 1.5s",2023-07-18_18h09.12.725,Rewa's Exp,2023.1.2,59.98271298185268,
Countdown_2s.mp4,green,red,left,Countdown_2s.jpg,9,0,9,0,,,,,1,2,6,3,0,0,0,0,0,0,0,3,,,,,,,,994.7433765999995,996.1906416000002,1.447265000000698,,,,,84,57:43,1,1000.6123330999999,left,1,1.417003200002,None,,,,,,,,,negar,1 - without skip,"60:40, 57:43","2.0s, 1.5s",2023-07-18_18h09.12.725,Rewa's Exp,2023.1.2,59.98271298185268,
Countdown_1.5s.mp4,red,green,right,Countdown_1.5s.jpg,9,0,9,0,,,,,1,3,7,0,0,0,0,0,0,0,0,3,,,,,,,,1000.1028461999995,1001.4576586999992,1.3548124999997526,,,,,85,57:43,1,1005.9718215999983,right,1,1.3217730000014853,None,,,,,,,,,negar,1 - without skip,"60:40, 57:43","2.0s, 1.5s",2023-07-18_18h09.12.725,Rewa's Exp,2023.1.2,59.98271298185268,
Countdown_1.5s.mp4,red,green,right,Countdown_1.5s.jpg,9,0,9,0,,,,,,,,,0,0,0,3,0,0,0,0,,,,,,,,,,,,,,,,,,,,,,,1008.4898922999982,1008.4898922999982,1008.4898922999982,1008.4898922999982,space,5.692156500001147,,,negar,1 - without skip,"60:40, 57:43","2.0s, 1.5s",2023-07-18_18h09.12.725,Rewa's Exp,2023.1.2,59.98271298185268,
Countdown_1.5s.mp4,red,green,right,Countdown_1.5s.jpg,10,0,10,0,0,0,0,0,,,,,0,0,0,3,0,0,0,0,,,,,,,,1011.1236346999995,1012.3573392999988,1.233704599999328,right,1,1.205153099999734,None,86,60:40,1,,,,,,,,,,,,,,negar,1 - without skip,"60:40, 57:43","2.0s, 1.5s",2023-07-18_18h09.12.725,Rewa's Exp,2023.1.2,59.98271298185268,
Countdown_2s.mp4,red,green,right,Countdown_2s.jpg,10,0,10,0,0,1,1,1,,,,,0,0,0,3,0,0,0,0,,,,,,,,1016.343648099999,1018.0076977999997,1.66404970000076,right,1,1.6420565000007628,None,87,60:40,1,,,,,,,,,,,,,,negar,1 - without skip,"60:40, 57:43","2.0s, 1.5s",2023-07-18_18h09.12.725,Rewa's Exp,2023.1.2,59.98271298185268,
Countdown_1.5s.mp4,green,red,left,Countdown_1.5s.jpg,10,0,10,0,0,2,2,2,,,,,0,0,0,3,0,0,0,0,,,,,,,,1021.9292322000001,1023.4240833000003,1.4948511000002327,left,1,1.488623400002325,None,88,60:40,1,,,,,,,,,,,,,,negar,1 - without skip,"60:40, 57:43","2.0s, 1.5s",2023-07-18_18h09.12.725,Rewa's Exp,2023.1.2,59.98271298185268,
Countdown_2s.mp4,green,red,left,Countdown_2s.jpg,10,0,10,0,0,3,3,3,,,,,0,0,0,3,0,0,0,0,,,,,,,,1027.3333975000005,1028.7406520999994,1.4072545999988506,left,1,1.3785755000008066,None,89,60:40,1,,,,,,,,,,,,,,negar,1 - without skip,"60:40, 57:43","2.0s, 1.5s",2023-07-18_18h09.12.725,Rewa's Exp,2023.1.2,59.98271298185268,
Countdown_1.5s.mp4,green,red,left,Countdown_1.5s.jpg,10,0,10,0,1,0,4,2,,,,,0,0,0,3,0,0,0,0,,,,,,,,1032.6437547000005,1033.8744238,1.2306690999994316,left,1,1.2041478000010102,None,90,60:40,1,,,,,,,,,,,,,,negar,1 - without skip,"60:40, 57:43","2.0s, 1.5s",2023-07-18_18h09.12.725,Rewa's Exp,2023.1.2,59.98271298185268,
Countdown_1.5s.mp4,red,green,right,Countdown_1.5s.jpg,10,0,10,0,1,1,5,0,,,,,0,0,0,3,0,0,0,0,,,,,,,,1037.8186494000001,1038.7572533999992,0.9386039999990317,right,1,0.9179143000019394,None,91,60:40,1,,,,,,,,,,,,,,negar,1 - without skip,"60:40, 57:43","2.0s, 1.5s",2023-07-18_18h09.12.725,Rewa's Exp,2023.1.2,59.98271298185268,
Countdown_2s.mp4,red,green,right,Countdown_2s.jpg,10,0,10,0,1,2,6,1,,,,,0,0,0,3,0,0,0,0,,,,,,,,1042.638454,1044.0239617999996,1.3855077999996865,right,1,1.354100800001106,None,92,60:40,1,,,,,,,,,,,,,,negar,1 - without skip,"60:40, 57:43","2.0s, 1.5s",2023-07-18_18h09.12.725,Rewa's Exp,2023.1.2,59.98271298185268,
Countdown_2s.mp4,green,red,left,Countdown_2s.jpg,10,0,10,0,1,3,7,3,,,,,0,0,0,3,0,0,0,0,,,,,,,,1047.9542975000004,1049.6080026,1.65370509999957,left,1,1.6300572000000102,None,93,60:40,1,,,,,,,,,,,,,,negar,1 - without skip,"60:40, 57:43","2.0s, 1.5s",2023-07-18_18h09.12.725,Rewa's Exp,2023.1.2,59.98271298185268,
Countdown_1.5s.mp4,red,green,right,Countdown_1.5s.jpg,10,0,10,0,,,,,0,0,0,0,0,0,0,3,0,0,0,0,,,,,,,,1053.5222245000004,1054.7572395999996,1.2350150999991456,,,,,91,57:43,-2,1059.3906289999995,left,0,1.206046500001321,None,,,,,,,,,negar,1 - without skip,"60:40, 57:43","2.0s, 1.5s",2023-07-18_18h09.12.725,Rewa's Exp,2023.1.2,59.98271298185268,
Countdown_2s.mp4,green,red,left,Countdown_2s.jpg,10,0,10,0,,,,,0,1,1,3,0,0,0,3,0,0,0,0,,,,,,,,1058.6584798000004,1060.2402736999993,1.5817938999989565,,,,,92,57:43,1,1064.5273634999994,left,1,1.550005400000373,None,,,,,,,,,negar,1 - without skip,"60:40, 57:43","2.0s, 1.5s",2023-07-18_18h09.12.725,Rewa's Exp,2023.1.2,59.98271298185268,
Countdown_1.5s.mp4,green,red,left,Countdown_1.5s.jpg,10,0,10,0,,,,,0,2,2,2,0,0,0,3,0,0,0,0,,,,,,,,1064.1548229,1065.4071896999994,1.252366799999436,,,,,93,57:43,1,1070.0226896999993,left,1,1.2225424999996903,None,,,,,,,,,negar,1 - without skip,"60:40, 57:43","2.0s, 1.5s",2023-07-18_18h09.12.725,Rewa's Exp,2023.1.2,59.98271298185268,
Countdown_2s.mp4,red,green,right,Countdown_2s.jpg,10,0,10,0,,,,,0,3,3,1,0,0,0,3,0,0,0,0,,,,,,,,1069.345290199999,1071.0073398000004,1.66204960000141,,,,,94,57:43,1,1075.2142814999988,right,1,1.630811500001073,None,,,,,,,,,negar,1 - without skip,"60:40, 57:43","2.0s, 1.5s",2023-07-18_18h09.12.725,Rewa's Exp,2023.1.2,59.98271298185268,
Countdown_2s.mp4,red,green,right,Countdown_2s.jpg,10,0,10,0,,,,,1,0,4,1,0,0,0,3,0,0,0,0,,,,,,,,1074.9082233999998,1076.3238241,1.415600700000141,,,,,95,57:43,1,1080.777216999999,right,1,1.3968650000006164,None,,,,,,,,,negar,1 - without skip,"60:40, 57:43","2.0s, 1.5s",2023-07-18_18h09.12.725,Rewa's Exp,2023.1.2,59.98271298185268,
Countdown_1.5s.mp4,red,green,right,Countdown_1.5s.jpg,10,0,10,0,,,,,1,1,5,0,0,0,0,3,0,0,0,0,,,,,,,,1080.2334150999995,1081.5405057999997,1.307090700000117,,,,,96,57:43,1,1086.102386999999,right,1,1.2795777000010276,None,,,,,,,,,negar,1 - without skip,"60:40, 57:43","2.0s, 1.5s",2023-07-18_18h09.12.725,Rewa's Exp,2023.1.2,59.98271298185268,
Countdown_1.5s.mp4,green,red,left,Countdown_1.5s.jpg,10,0,10,0,,,,,1,2,6,2,0,0,0,3,0,0,0,0,,,,,,,,1085.4797332999988,1086.7572578,1.2775245000011637,,,,,97,57:43,1,1091.3486882999987,left,1,1.2480928000004496,None,,,,,,,,,negar,1 - without skip,"60:40, 57:43","2.0s, 1.5s",2023-07-18_18h09.12.725,Rewa's Exp,2023.1.2,59.98271298185268,
Countdown_2s.mp4,green,red,left,Countdown_2s.jpg,10,0,10,0,,,,,1,3,7,3,0,0,0,3,0,0,0,0,,,,,,,,1090.6953400999992,1092.4573069999988,1.7619668999996065,,,,,98,57:43,1,1096.5640476999997,left,1,1.7376023000015266,None,,,,,,,,,negar,1 - without skip,"60:40, 57:43","2.0s, 1.5s",2023-07-18_18h09.12.725,Rewa's Exp,2023.1.2,59.98271298185268,
Countdown_1.5s.mp4,green,red,left,Countdown_1.5s.jpg,10,0,10,0,,,,,,,,,0,0,0,0,0,0,0,2,,,,,,,,,,,,,,,,,,,,,,,1099.4720413999985,1099.4720413999985,1099.4720413999985,1099.4720413999985,space,2.733242900001642,,,negar,1 - without skip,"60:40, 57:43","2.0s, 1.5s",2023-07-18_18h09.12.725,Rewa's Exp,2023.1.2,59.98271298185268,
Countdown_1.5s.mp4,green,red,left,Countdown_1.5s.jpg,11,0,11,0,0,0,0,2,,,,,0,0,0,0,0,0,0,2,,,,,,,,1099.1551354999992,1100.6405744999993,1.4854390000000421,None,0,,None,96,60:40,-2,,,,,,,,,,,,,,negar,1 - without skip,"60:40, 57:43","2.0s, 1.5s",2023-07-18_18h09.12.725,Rewa's Exp,2023.1.2,59.98271298185268,
Countdown_2s.mp4,red,green,right,Countdown_2s.jpg,11,0,11,0,0,1,1,1,,,,,0,0,0,0,0,0,0,2,,,,,,,,1104.5524931,1106.1738571999995,1.6213640999994823,right,1,1.591160400001172,None,97,60:40,1,,,,,,,,,,,,,,negar,1 - without skip,"60:40, 57:43","2.0s, 1.5s",2023-07-18_18h09.12.725,Rewa's Exp,2023.1.2,59.98271298185268,
Countdown_2s.mp4,green,red,left,Countdown_2s.jpg,11,0,11,0,0,2,2,3,,,,,0,0,0,0,0,0,0,2,,,,,,,,1110.0775441999995,1111.7404850000003,1.662940800000797,left,1,1.6350885000010749,None,98,60:40,1,,,,,,,,,,,,,,negar,1 - without skip,"60:40, 57:43","2.0s, 1.5s",2023-07-18_18h09.12.725,Rewa's Exp,2023.1.2,59.98271298185268,
Countdown_1.5s.mp4,red,green,right,Countdown_1.5s.jpg,11,0,11,0,0,3,3,0,,,,,0,0,0,0,0,0,0,2,,,,,,,,1115.6334334000003,1116.9853220999994,1.3518886999991082,left,0,1.319170100001429,None,96,60:40,-2,,,,,,,,,,,,,,negar,1 - without skip,"60:40, 57:43","2.0s, 1.5s",2023-07-18_18h09.12.725,Rewa's Exp,2023.1.2,59.98271298185268,
Countdown_2s.mp4,red,green,right,Countdown_2s.jpg,11,0,11,0,1,0,4,1,,,,,0,0,0,0,0,0,0,2,,,,,,,,1120.8996986999991,1122.3410439999989,1.441345299999739,right,1,1.4117430000005697,None,97,60:40,1,,,,,,,,,,,,,,negar,1 - without skip,"60:40, 57:43","2.0s, 1.5s",2023-07-18_18h09.12.725,Rewa's Exp,2023.1.2,59.98271298185268,
Countdown_1.5s.mp4,green,red,left,Countdown_1.5s.jpg,11,0,11,0,1,1,5,2,,,,,0,0,0,0,0,0,0,2,,,,,,,,1126.2547381000004,1127.2738099999988,1.01907189999838,left,1,0.9929265000009764,None,98,60:40,1,,,,,,,,,,,,,,negar,1 - without skip,"60:40, 57:43","2.0s, 1.5s",2023-07-18_18h09.12.725,Rewa's Exp,2023.1.2,59.98271298185268,
Countdown_1.5s.mp4,red,green,right,Countdown_1.5s.jpg,11,0,11,0,1,2,6,0,,,,,0,0,0,0,0,0,0,2,,,,,,,,1131.1715024999994,1132.3904801999997,1.2189777000003232,right,1,1.1887029999998049,None,99,60:40,1,,,,,,,,,,,,,,negar,1 - without skip,"60:40, 57:43","2.0s, 1.5s",2023-07-18_18h09.12.725,Rewa's Exp,2023.1.2,59.98271298185268,
Countdown_2s.mp4,green,red,left,Countdown_2s.jpg,11,0,11,0,1,3,7,3,,,,,0,0,0,0,0,0,0,2,,,,,,,,1136.290646899999,1137.9905294,1.6998825000009674,left,1,1.6692392000004475,None,100,60:40,1,,,,,,,,,,,,,,negar,1 - without skip,"60:40, 57:43","2.0s, 1.5s",2023-07-18_18h09.12.725,Rewa's Exp,2023.1.2,59.98271298185268,
Countdown_1.5s.mp4,red,green,right,Countdown_1.5s.jpg,11,0,11,0,,,,,0,0,0,0,0,0,0,0,0,0,0,2,,,,,,,,1141.9079956000005,1143.1905267999991,1.2825311999986297,,,,,101,57:43,1,1147.7770080999999,right,1,1.2519132000015816,None,,,,,,,,,negar,1 - without skip,"60:40, 57:43","2.0s, 1.5s",2023-07-18_18h09.12.725,Rewa's Exp,2023.1.2,59.98271298185268,
Countdown_2s.mp4,red,green,right,Countdown_2s.jpg,11,0,11,0,,,,,0,1,1,1,0,0,0,0,0,0,0,2,,,,,,,,1147.120665299999,1148.807322499999,1.6866571999998996,,,,,102,57:43,1,1152.9896317999992,right,1,1.663384200001019,None,,,,,,,,,negar,1 - without skip,"60:40, 57:43","2.0s, 1.5s",2023-07-18_18h09.12.725,Rewa's Exp,2023.1.2,59.98271298185268,
Countdown_1.5s.mp4,green,red,left,Countdown_1.5s.jpg,11,0,11,0,,,,,0,2,2,2,0,0,0,0,0,0,0,2,,,,,,,,1152.7622450999988,1154.0071024999997,1.2448574000009103,,,,,103,57:43,1,1158.6311991999992,left,1,1.2138580000009824,None,,,,,,,,,negar,1 - without skip,"60:40, 57:43","2.0s, 1.5s",2023-07-18_18h09.12.725,Rewa's Exp,2023.1.2,59.98271298185268,
Countdown_2s.mp4,green,red,left,Countdown_2s.jpg,11,0,11,0,,,,,0,3,3,3,0,0,0,0,0,0,0,2,,,,,,,,1157.923211899999,1159.4905509,1.567339000001084,,,,,101,57:43,-2,1163.7919768999982,right,0,1.5502441999997245,None,,,,,,,,,negar,1 - without skip,"60:40, 57:43","2.0s, 1.5s",2023-07-18_18h09.12.725,Rewa's Exp,2023.1.2,59.98271298185268,
Countdown_1.5s.mp4,green,red,left,Countdown_1.5s.jpg,11,0,11,0,,,,,1,0,4,2,0,0,0,0,0,0,0,2,,,,,,,,1163.3771983999995,1164.5404240999997,1.1632257000001118,,,,,102,57:43,1,1169.2461317999987,left,1,1.1343766000009055,None,,,,,,,,,negar,1 - without skip,"60:40, 57:43","2.0s, 1.5s",2023-07-18_18h09.12.725,Rewa's Exp,2023.1.2,59.98271298185268,
Countdown_2s.mp4,red,green,right,Countdown_2s.jpg,11,0,11,0,,,,,1,1,5,1,0,0,0,0,0,0,0,2,,,,,,,,1168.4442741000003,1169.8570849999996,1.4128108999993856,,,,,103,57:43,1,1174.3131627999992,right,1,1.3958068000010826,None,,,,,,,,,negar,1 - without skip,"60:40, 57:43","2.0s, 1.5s",2023-07-18_18h09.12.725,Rewa's Exp,2023.1.2,59.98271298185268,
Countdown_2s.mp4,green,red,left,Countdown_2s.jpg,11,0,11,0,,,,,1,2,6,3,0,0,0,0,0,0,0,2,,,,,,,,1173.7467574000002,1175.2905866,1.543829199999891,,,,,101,57:43,-2,1179.6157055999993,right,0,1.5255208000016864,None,,,,,,,,,negar,1 - without skip,"60:40, 57:43","2.0s, 1.5s",2023-07-18_18h09.12.725,Rewa's Exp,2023.1.2,59.98271298185268,
Countdown_1.5s.mp4,red,green,right,Countdown_1.5s.jpg,11,0,11,0,,,,,1,3,7,0,0,0,0,0,0,0,0,2,,,,,,,,1179.196935599999,1180.3907982,1.1938626000010117,,,,,102,57:43,1,1185.0659299,right,1,1.1626085000007151,None,,,,,,,,,negar,1 - without skip,"60:40, 57:43","2.0s, 1.5s",2023-07-18_18h09.12.725,Rewa's Exp,2023.1.2,59.98271298185268,
Countdown_1.5s.mp4,green,red,left,Countdown_1.5s.jpg,11,0,11,0,,,,,,,,,0,0,0,0,0,0,0,2,,,,,,,,,,,,,,,,,,,,,,,1187.4196976999992,1187.4196976999992,1187.4196976999992,1187.4196976999992,space,5.416759800000364,,,negar,1 - without skip,"60:40, 57:43","2.0s, 1.5s",2023-07-18_18h09.12.725,Rewa's Exp,2023.1.2,59.98271298185268,
Countdown_1.5s.mp4,green,red,left,Countdown_1.5s.jpg,12,0,12,0,0,0,0,2,,,,,0,0,0,0,0,0,0,2,,,,,,,,1189.7820455,1191.1237827000004,1.3417372000003525,left,1,1.3223917000013898,None,103,60:40,1,,,,,,,,,,,,,,negar,1 - without skip,"60:40, 57:43","2.0s, 1.5s",2023-07-18_18h09.12.725,Rewa's Exp,2023.1.2,59.98271298185268,
Countdown_1.5s.mp4,red,green,right,Countdown_1.5s.jpg,12,0,12,0,0,1,1,0,,,,,0,0,0,0,0,0,0,2,,,,,,,,1195.027123599999,1196.1736724000002,1.1465488000012556,right,1,1.1167277000004106,None,104,60:40,1,,,,,,,,,,,,,,negar,1 - without skip,"60:40, 57:43","2.0s, 1.5s",2023-07-18_18h09.12.725,Rewa's Exp,2023.1.2,59.98271298185268,
Countdown_2s.mp4,green,red,left,Countdown_2s.jpg,12,0,12,0,0,2,2,3,,,,,0,0,0,0,0,0,0,2,,,,,,,,1200.1109122999987,1201.3570941999988,1.2461819000000105,left,1,1.2171394000015425,None,105,60:40,1,,,,,,,,,,,,,,negar,1 - without skip,"60:40, 57:43","2.0s, 1.5s",2023-07-18_18h09.12.725,Rewa's Exp,2023.1.2,59.98271298185268,
Countdown_2s.mp4,red,green,right,Countdown_2s.jpg,12,0,12,0,0,3,3,1,,,,,0,0,0,0,0,0,0,2,,,,,,,,1205.2754344999994,1206.4905581000003,1.2151236000008794,right,1,1.1967984000020806,None,106,60:40,1,,,,,,,,,,,,,,negar,1 - without skip,"60:40, 57:43","2.0s, 1.5s",2023-07-18_18h09.12.725,Rewa's Exp,2023.1.2,59.98271298185268,
Countdown_2s.mp4,red,green,right,Countdown_2s.jpg,12,0,12,0,1,0,4,1,,,,,0,0,0,0,0,0,0,2,,,,,,,,1210.3989757,1212.1907205999996,1.791744899999685,right,1,1.760195400001976,None,107,60:40,1,,,,,,,,,,,,,,negar,1 - without skip,"60:40, 57:43","2.0s, 1.5s",2023-07-18_18h09.12.725,Rewa's Exp,2023.1.2,59.98271298185268,
Countdown_1.5s.mp4,green,red,left,Countdown_1.5s.jpg,12,0,12,0,1,1,5,2,,,,,0,0,0,0,0,0,0,2,,,,,,,,1216.1279185999992,1217.340376,1.2124574000008579,left,1,1.1846888000018225,None,108,60:40,1,,,,,,,,,,,,,,negar,1 - without skip,"60:40, 57:43","2.0s, 1.5s",2023-07-18_18h09.12.725,Rewa's Exp,2023.1.2,59.98271298185268,
Countdown_2s.mp4,green,red,left,Countdown_2s.jpg,12,0,12,0,1,2,6,3,,,,,0,0,0,0,0,0,0,2,,,,,,,,1221.2298226000003,1222.8737007,1.6438780999997107,left,1,1.619079200001579,None,109,60:40,1,,,,,,,,,,,,,,negar,1 - without skip,"60:40, 57:43","2.0s, 1.5s",2023-07-18_18h09.12.725,Rewa's Exp,2023.1.2,59.98271298185268,
Countdown_1.5s.mp4,red,green,right,Countdown_1.5s.jpg,12,0,12,0,1,3,7,0,,,,,0,0,0,0,0,0,0,2,,,,,,,,1226.8037208999995,1228.1070863999994,1.3033654999999271,right,1,1.2755438000021968,None,110,60:40,1,,,,,,,,,,,,,,negar,1 - without skip,"60:40, 57:43","2.0s, 1.5s",2023-07-18_18h09.12.725,Rewa's Exp,2023.1.2,59.98271298185268,
Countdown_2s.mp4,green,red,left,Countdown_2s.jpg,12,0,12,0,,,,,0,0,0,3,0,0,0,0,0,0,0,2,,,,,,,,1232.032191799999,1233.656952199999,1.6247604000000138,,,,,111,57:43,1,1237.9011358999996,left,1,1.6003016000013304,None,,,,,,,,,negar,1 - without skip,"60:40, 57:43","2.0s, 1.5s",2023-07-18_18h09.12.725,Rewa's Exp,2023.1.2,59.98271298185268,
Countdown_1.5s.mp4,red,green,right,Countdown_1.5s.jpg,12,0,12,0,,,,,0,1,1,0,0,0,0,0,0,0,0,2,,,,,,,,1237.552539799999,1238.8070752000003,1.2545354000012594,,,,,112,57:43,1,1243.4215502999996,right,1,1.2226752000005945,None,,,,,,,,,negar,1 - without skip,"60:40, 57:43","2.0s, 1.5s",2023-07-18_18h09.12.725,Rewa's Exp,2023.1.2,59.98271298185268,
Countdown_1.5s.mp4,green,red,left,Countdown_1.5s.jpg,12,0,12,0,,,,,0,2,2,2,0,0,0,0,0,0,0,2,,,,,,,,1242.714275299999,1244.0403229999993,1.3260477000003448,,,,,113,57:43,1,1248.5832515999991,left,1,1.2936611000004632,None,,,,,,,,,negar,1 - without skip,"60:40, 57:43","2.0s, 1.5s",2023-07-18_18h09.12.725,Rewa's Exp,2023.1.2,59.98271298185268,
Countdown_2s.mp4,red,green,right,Countdown_2s.jpg,12,0,12,0,,,,,0,3,3,1,0,0,0,0,0,0,0,2,,,,,,,,1247.9556186999998,1249.7904698000002,1.8348511000003782,,,,,114,57:43,1,1253.8245498999986,right,1,1.8045255000015459,None,,,,,,,,,negar,1 - without skip,"60:40, 57:43","2.0s, 1.5s",2023-07-18_18h09.12.725,Rewa's Exp,2023.1.2,59.98271298185268,
Countdown_2s.mp4,green,red,left,Countdown_2s.jpg,12,0,12,0,,,,,1,0,4,3,0,0,0,0,0,0,0,2,,,,,,,,1253.7633487000003,1255.3904119,1.6270631999996112,,,,,115,57:43,1,1259.6323294999984,left,1,1.604075200000807,None,,,,,,,,,negar,1 - without skip,"60:40, 57:43","2.0s, 1.5s",2023-07-18_18h09.12.725,Rewa's Exp,2023.1.2,59.98271298185268,
Countdown_1.5s.mp4,red,green,right,Countdown_1.5s.jpg,12,0,12,0,,,,,1,1,5,0,0,0,0,0,0,0,0,2,,,,,,,,1259.327024099999,1260.6237800999988,1.296755999999732,,,,,116,57:43,1,1265.1960406999988,right,1,1.2732171000006929,None,,,,,,,,,negar,1 - without skip,"60:40, 57:43","2.0s, 1.5s",2023-07-18_18h09.12.725,Rewa's Exp,2023.1.2,59.98271298185268,
Countdown_2s.mp4,red,green,right,Countdown_2s.jpg,12,0,12,0,,,,,1,2,6,1,0,0,0,0,0,0,0,2,,,,,,,,1264.5253004999995,1265.9902303,1.464929800000391,,,,,114,57:43,-2,1270.394215299999,left,0,1.4428402000012284,None,,,,,,,,,negar,1 - without skip,"60:40, 57:43","2.0s, 1.5s",2023-07-18_18h09.12.725,Rewa's Exp,2023.1.2,59.98271298185268,
Countdown_1.5s.mp4,green,red,left,Countdown_1.5s.jpg,12,0,12,0,,,,,1,3,7,2,0,0,0,0,0,0,0,2,,,,,,,,1269.9290865999992,1271.2071373999988,1.278050799999619,,,,,115,57:43,1,1275.797430999999,left,1,1.2554905000015424,None,,,,,,,,,negar,1 - without skip,"60:40, 57:43","2.0s, 1.5s",2023-07-18_18h09.12.725,Rewa's Exp,2023.1.2,59.98271298185268,
Countdown_2s.mp4,green,red,left,Countdown_2s.jpg,12,0,12,0,,,,,,,,,0,0,0,0,0,0,0,3,,,,,,,,,,,,,,,,,,,,,,,1278.2288254999985,1278.2288254999985,1278.2288254999985,1278.2288254999985,space,1.6089980000015203,,,negar,1 - without skip,"60:40, 57:43","2.0s, 1.5s",2023-07-18_18h09.12.725,Rewa's Exp,2023.1.2,59.98271298185268,
Countdown_1.5s.mp4,red,green,right,Countdown_1.5s.jpg,13,0,13,0,0,0,0,0,,,,,0,0,0,0,0,0,0,3,,,,,,,,1276.7988958000005,1277.9404999999988,1.1416041999982554,right,1,1.1212744000022212,None,116,60:40,1,,,,,,,,,,,,,,negar,1 - without skip,"60:40, 57:43","2.0s, 1.5s",2023-07-18_18h09.12.725,Rewa's Exp,2023.1.2,59.98271298185268,
Countdown_2s.mp4,red,green,right,Countdown_2s.jpg,13,0,13,0,0,1,1,1,,,,,0,0,0,0,0,0,0,3,,,,,,,,1281.8359110000001,1283.0904611000005,1.2545501000004151,right,1,1.2279909000008047,None,117,60:40,1,,,,,,,,,,,,,,negar,1 - without skip,"60:40, 57:43","2.0s, 1.5s",2023-07-18_18h09.12.725,Rewa's Exp,2023.1.2,59.98271298185268,
Countdown_1.5s.mp4,green,red,left,Countdown_1.5s.jpg,13,0,13,0,0,2,2,2,,,,,0,0,0,0,0,0,0,3,,,,,,,,1287.004797399999,1288.2741162999992,1.269318900000144,left,1,1.2431851000019378,None,118,60:40,1,,,,,,,,,,,,,,negar,1 - without skip,"60:40, 57:43","2.0s, 1.5s",2023-07-18_18h09.12.725,Rewa's Exp,2023.1.2,59.98271298185268,
Countdown_2s.mp4,green,red,left,Countdown_2s.jpg,13,0,13,0,0,3,3,3,,,,,0,0,0,0,0,0,0,3,,,,,,,,1292.2138794999992,1293.9071755999994,1.6932961000002251,left,1,1.6661192000010487,None,119,60:40,1,,,,,,,,,,,,,,negar,1 - without skip,"60:40, 57:43","2.0s, 1.5s",2023-07-18_18h09.12.725,Rewa's Exp,2023.1.2,59.98271298185268,
Countdown_2s.mp4,red,green,right,Countdown_2s.jpg,13,0,13,0,1,0,4,1,,,,,0,0,0,0,0,0,0,3,,,,,,,,1297.8105213,1299.3903544000004,1.579833100000542,right,1,1.5586834000005183,None,120,60:40,1,,,,,,,,,,,,,,negar,1 - without skip,"60:40, 57:43","2.0s, 1.5s",2023-07-18_18h09.12.725,Rewa's Exp,2023.1.2,59.98271298185268,
Countdown_1.5s.mp4,red,green,right,Countdown_1.5s.jpg,13,0,13,0,1,1,5,0,,,,,0,0,0,0,0,0,0,3,,,,,,,,1303.308624899999,1304.6906299999991,1.3820051000002422,right,1,1.354590900002222,None,121,60:40,1,,,,,,,,,,,,,,negar,1 - without skip,"60:40, 57:43","2.0s, 1.5s",2023-07-18_18h09.12.725,Rewa's Exp,2023.1.2,59.98271298185268,
Countdown_2s.mp4,green,red,left,Countdown_2s.jpg,13,0,13,0,1,2,6,3,,,,,0,0,0,0,0,0,0,3,,,,,,,,1308.581871299999,1310.1237576999993,1.541886400000294,left,1,1.5220979000005173,None,122,60:40,1,,,,,,,,,,,,,,negar,1 - without skip,"60:40, 57:43","2.0s, 1.5s",2023-07-18_18h09.12.725,Rewa's Exp,2023.1.2,59.98271298185268,
Countdown_1.5s.mp4,green,red,left,Countdown_1.5s.jpg,13,0,13,0,1,3,7,2,,,,,0,0,0,0,0,0,0,3,,,,,,,,1314.0116268000002,1315.2571635000004,1.2455367000002298,left,1,1.2129618000017217,None,123,60:40,1,,,,,,,,,,,,,,negar,1 - without skip,"60:40, 57:43","2.0s, 1.5s",2023-07-18_18h09.12.725,Rewa's Exp,2023.1.2,59.98271298185268,
Countdown_2s.mp4,red,green,right,Countdown_2s.jpg,13,0,13,0,,,,,0,0,0,1,0,0,0,0,0,0,0,3,,,,,,,,1319.1923828,1320.857055299999,1.664672499999142,,,,,124,57:43,1,1325.061394799999,right,1,1.6480317000005016,None,,,,,,,,,negar,1 - without skip,"60:40, 57:43","2.0s, 1.5s",2023-07-18_18h09.12.725,Rewa's Exp,2023.1.2,59.98271298185268,
Countdown_1.5s.mp4,green,red,left,Countdown_1.5s.jpg,13,0,13,0,,,,,0,1,1,2,0,0,0,0,0,0,0,3,,,,,,,,1324.7543592000002,1326.0403473999995,1.2859881999993377,,,,,125,57:43,1,1330.6233362999992,left,1,1.2610978000011528,None,,,,,,,,,negar,1 - without skip,"60:40, 57:43","2.0s, 1.5s",2023-07-18_18h09.12.725,Rewa's Exp,2023.1.2,59.98271298185268,
Countdown_2s.mp4,green,red,left,Countdown_2s.jpg,13,0,13,0,,,,,0,2,2,3,0,0,0,0,0,0,0,3,,,,,,,,1329.9663572999998,1331.7236408999997,1.757283599999937,,,,,123,57:43,-2,1335.8352229999982,right,0,1.7375375000010536,None,,,,,,,,,negar,1 - without skip,"60:40, 57:43","2.0s, 1.5s",2023-07-18_18h09.12.725,Rewa's Exp,2023.1.2,59.98271298185268,
Countdown_1.5s.mp4,red,green,right,Countdown_1.5s.jpg,13,0,13,0,,,,,0,3,3,0,0,0,0,0,0,0,0,3,,,,,,,,1335.6361402999992,1337.0902456999993,1.4541054000001168,,,,,121,57:43,-2,1341.5050895999993,left,0,1.4274911000011343,None,,,,,,,,,negar,1 - without skip,"60:40, 57:43","2.0s, 1.5s",2023-07-18_18h09.12.725,Rewa's Exp,2023.1.2,59.98271298185268,
Countdown_1.5s.mp4,red,green,right,Countdown_1.5s.jpg,13,0,13,0,,,,,1,0,4,0,0,0,0,0,0,0,0,3,,,,,,,,1341.0011565999994,1342.2236334999998,1.2224769000004017,,,,,119,57:43,-2,1346.8702359999988,left,0,1.1902618000021903,None,,,,,,,,,negar,1 - without skip,"60:40, 57:43","2.0s, 1.5s",2023-07-18_18h09.12.725,Rewa's Exp,2023.1.2,59.98271298185268,
Countdown_1.5s.mp4,green,red,left,Countdown_1.5s.jpg,13,0,13,0,,,,,1,1,5,2,0,0,0,0,0,0,0,3,,,,,,,,1346.1180471999996,1347.3071275000002,1.189080300000569,,,,,120,57:43,1,1351.987023399999,left,1,1.1707674999997835,None,,,,,,,,,negar,1 - without skip,"60:40, 57:43","2.0s, 1.5s",2023-07-18_18h09.12.725,Rewa's Exp,2023.1.2,59.98271298185268,
Countdown_2s.mp4,green,red,left,Countdown_2s.jpg,13,0,13,0,,,,,1,2,6,3,0,0,0,0,0,0,0,3,,,,,,,,1351.2411558000003,1352.6568742,1.415718399999605,,,,,121,57:43,1,1357.1100084999998,left,1,1.390858599999774,None,,,,,,,,,negar,1 - without skip,"60:40, 57:43","2.0s, 1.5s",2023-07-18_18h09.12.725,Rewa's Exp,2023.1.2,59.98271298185268,
Countdown_2s.mp4,red,green,right,Countdown_2s.jpg,13,0,13,0,,,,,1,3,7,1,0,0,0,0,0,0,0,3,,,,,,,,1356.5539595999999,1358.0902855000004,1.53632590000052,,,,,119,57:43,-2,1362.4228836999991,left,0,1.5190255000015895,None,,,,,,,,,negar,1 - without skip,"60:40, 57:43","2.0s, 1.5s",2023-07-18_18h09.12.725,Rewa's Exp,2023.1.2,59.98271298185268,
Countdown_1.5s.mp4,green,red,left,Countdown_1.5s.jpg,13,0,13,0,,,,,,,,,0,0,0,1,0,0,0,2,,,,,,,,,,,,,,,,,,,,,,,1365.1022672999989,1365.1022672999989,1365.1022672999989,1365.1022672999989,space,10.655438800000411,,,negar,1 - without skip,"60:40, 57:43","2.0s, 1.5s",2023-07-18_18h09.12.725,Rewa's Exp,2023.1.2,59.98271298185268,
Countdown_2s.mp4,red,green,right,Countdown_2s.jpg,14,0,14,0,0,0,0,1,,,,,0,0,0,1,0,0,0,2,,,,,,,,1372.7021253000003,1374.6569627999997,1.9548374999994849,right,1,1.9289899000013975,None,120,60:40,1,,,,,,,,,,,,,,negar,1 - without skip,"60:40, 57:43","2.0s, 1.5s",2023-07-18_18h09.12.725,Rewa's Exp,2023.1.2,59.98271298185268,
Countdown_1.5s.mp4,green,red,left,Countdown_1.5s.jpg,14,0,14,0,0,1,1,2,,,,,0,0,0,1,0,0,0,2,,,,,,,,1378.6173610999995,1379.923535599999,1.3061744999995426,left,1,1.2872529000014765,None,121,60:40,1,,,,,,,,,,,,,,negar,1 - without skip,"60:40, 57:43","2.0s, 1.5s",2023-07-18_18h09.12.725,Rewa's Exp,2023.1.2,59.98271298185268,
Countdown_2s.mp4,green,red,left,Countdown_2s.jpg,14,0,14,0,0,2,2,3,,,,,0,0,0,1,0,0,0,2,,,,,,,,1383.8581212999998,1385.6073744000005,1.7492531000007148,left,1,1.7174095000009402,None,122,60:40,1,,,,,,,,,,,,,,negar,1 - without skip,"60:40, 57:43","2.0s, 1.5s",2023-07-18_18h09.12.725,Rewa's Exp,2023.1.2,59.98271298185268,
Countdown_1.5s.mp4,red,green,right,Countdown_1.5s.jpg,14,0,14,0,0,3,3,0,,,,,0,0,0,1,0,0,0,2,,,,,,,,1389.5497632999995,1390.640281099999,1.0905177999993612,right,1,1.065946000002441,None,123,60:40,1,,,,,,,,,,,,,,negar,1 - without skip,"60:40, 57:43","2.0s, 1.5s",2023-07-18_18h09.12.725,Rewa's Exp,2023.1.2,59.98271298185268,
Countdown_1.5s.mp4,green,red,left,Countdown_1.5s.jpg,14,0,14,0,1,0,4,2,,,,,0,0,0,1,0,0,0,2,,,,,,,,1394.5748612999996,1395.8237245,1.2488632000004145,left,1,1.2161482000010437,None,124,60:40,1,,,,,,,,,,,,,,negar,1 - without skip,"60:40, 57:43","2.0s, 1.5s",2023-07-18_18h09.12.725,Rewa's Exp,2023.1.2,59.98271298185268,
Countdown_1.5s.mp4,red,green,right,Countdown_1.5s.jpg,14,0,14,0,1,1,5,0,,,,,0,0,0,1,0,0,0,2,,,,,,,,1399.7384303,1401.0071962999991,1.268765999999232,right,1,1.2457502000015666,None,125,60:40,1,,,,,,,,,,,,,,negar,1 - without skip,"60:40, 57:43","2.0s, 1.5s",2023-07-18_18h09.12.725,Rewa's Exp,2023.1.2,59.98271298185268,
Countdown_2s.mp4,red,green,right,Countdown_2s.jpg,14,0,14,0,1,2,6,1,,,,,0,0,0,1,0,0,0,2,,,,,,,,1404.9741317999997,1406.7069011000003,1.7327693000006548,right,1,1.7140728000013041,None,126,60:40,1,,,,,,,,,,,,,,negar,1 - without skip,"60:40, 57:43","2.0s, 1.5s",2023-07-18_18h09.12.725,Rewa's Exp,2023.1.2,59.98271298185268,
Countdown_2s.mp4,green,red,left,Countdown_2s.jpg,14,0,14,0,1,3,7,3,,,,,0,0,0,1,0,0,0,2,,,,,,,,1410.6562725999993,1412.407255,1.7509824000007939,right,0,1.7271614000019326,None,124,60:40,-2,,,,,,,,,,,,,,negar,1 - without skip,"60:40, 57:43","2.0s, 1.5s",2023-07-18_18h09.12.725,Rewa's Exp,2023.1.2,59.98271298185268,
Countdown_1.5s.mp4,red,green,right,Countdown_1.5s.jpg,14,0,14,0,,,,,0,0,0,0,0,0,0,1,0,0,0,2,,,,,,,,1416.3774156,1417.6073586999992,1.2299430999992182,,,,,125,57:43,1,1422.2463155999994,right,1,1.1982652000024245,None,,,,,,,,,negar,1 - without skip,"60:40, 57:43","2.0s, 1.5s",2023-07-18_18h09.12.725,Rewa's Exp,2023.1.2,59.98271298185268,
Countdown_2s.mp4,green,red,left,Countdown_2s.jpg,14,0,14,0,,,,,0,1,1,3,0,0,0,1,0,0,0,2,,,,,,,,1421.5781742999989,1423.3239280999987,1.745753799999875,,,,,126,57:43,1,1427.4465960999987,left,1,1.7263312000013684,None,,,,,,,,,negar,1 - without skip,"60:40, 57:43","2.0s, 1.5s",2023-07-18_18h09.12.725,Rewa's Exp,2023.1.2,59.98271298185268,
Countdown_1.5s.mp4,green,red,left,Countdown_1.5s.jpg,14,0,14,0,,,,,0,2,2,2,0,0,0,1,0,0,0,2,,,,,,,,1427.2405700999989,1428.373409599999,1.1328395000000455,,,,,127,57:43,1,1433.1095773999987,left,1,1.110527100001491,None,,,,,,,,,negar,1 - without skip,"60:40, 57:43","2.0s, 1.5s",2023-07-18_18h09.12.725,Rewa's Exp,2023.1.2,59.98271298185268,
Countdown_2s.mp4,red,green,right,Countdown_2s.jpg,14,0,14,0,,,,,0,3,3,1,0,0,0,1,0,0,0,2,,,,,,,,1432.3257761999994,1433.9401767,1.6144005000005563,,,,,128,57:43,1,1438.1942046999993,right,1,1.5861675000014657,None,,,,,,,,,negar,1 - without skip,"60:40, 57:43","2.0s, 1.5s",2023-07-18_18h09.12.725,Rewa's Exp,2023.1.2,59.98271298185268,
Countdown_1.5s.mp4,red,green,right,Countdown_1.5s.jpg,14,0,14,0,,,,,1,0,4,0,0,0,0,1,0,0,0,2,,,,,,,,1437.8376246999997,1439.0234609999989,1.1858362999992096,,,,,126,57:43,-2,1443.7066192999991,left,0,1.1540678000019398,None,,,,,,,,,negar,1 - without skip,"60:40, 57:43","2.0s, 1.5s",2023-07-18_18h09.12.725,Rewa's Exp,2023.1.2,59.98271298185268,
Countdown_2s.mp4,red,green,right,Countdown_2s.jpg,14,0,14,0,,,,,1,1,5,1,0,0,0,1,0,0,0,2,,,,,,,,1442.9639368999997,1444.7235056999998,1.7595688000001246,,,,,127,57:43,1,1448.8328415999986,right,1,1.731640600000901,None,,,,,,,,,negar,1 - without skip,"60:40, 57:43","2.0s, 1.5s",2023-07-18_18h09.12.725,Rewa's Exp,2023.1.2,59.98271298185268,
Countdown_2s.mp4,green,red,left,Countdown_2s.jpg,14,0,14,0,,,,,1,2,6,3,0,0,0,1,0,0,0,2,,,,,,,,1448.6390190999991,1450.356469799999,1.7174506999999721,,,,,128,57:43,1,1454.5079411999996,left,1,1.6881449000011344,None,,,,,,,,,negar,1 - without skip,"60:40, 57:43","2.0s, 1.5s",2023-07-18_18h09.12.725,Rewa's Exp,2023.1.2,59.98271298185268,
Countdown_1.5s.mp4,green,red,left,Countdown_1.5s.jpg,14,0,14,0,,,,,1,3,7,2,0,0,0,1,0,0,0,2,,,,,,,,1454.2745235999992,1455.7567447000001,1.4822211000009702,,,,,126,57:43,-2,1460.1435471999994,None,0,,None,,,,,,,,,negar,1 - without skip,"60:40, 57:43","2.0s, 1.5s",2023-07-18_18h09.12.725,Rewa's Exp,2023.1.2,59.98271298185268,
Countdown_1.5s.mp4,red,green,right,Countdown_1.5s.jpg,14,0,14,0,,,,,,,,,0,0,0,1,0,0,0,0,,,,,,,,,,,,,,,,,,,,,,,1462.778804399999,1462.778804399999,1462.778804399999,1462.778804399999,space,1.5380411000005552,,,negar,1 - without skip,"60:40, 57:43","2.0s, 1.5s",2023-07-18_18h09.12.725,Rewa's Exp,2023.1.2,59.98271298185268,
,,,,,,,,,,,,,,,,,,,,,,,,,,,,,,,,,,,,,,,,,,,,,,,,,,,,,1464.3367703999993,1469.3368385999984,,,,,,,,,
