Countdown,color1,color2,correct,screenshot,trials.thisRepN,trials.thisTrialN,trials.thisN,trials.thisIndex,trials_6040.thisRepN,trials_6040.thisTrialN,trials_6040.thisN,trials_6040.thisIndex,trials_5743.thisRepN,trials_5743.thisTrialN,trials_5743.thisN,trials_5743.thisIndex,trials_5446.thisRepN,trials_5446.thisTrialN,trials_5446.thisN,trials_5446.thisIndex,trials_5149.thisRepN,trials_5149.thisTrialN,trials_5149.thisN,trials_5149.thisIndex,key_resp_4.started,key_resp_4.keys,key_resp_4.rt,key_resp_2.keys,key_resp_3.started,key_resp_3.keys,key_resp_3.rt,Videoshowstart,Videoshowstop,VideoshowRT,response.keys,response.corr,key_skip.keys,key_skip.rt,total_score,Dot_ratio,current_score,response.rt,Left_3.started,response_2.keys,response_2.corr,response_2.rt,key_skip_2.keys,key_skip_2.rt,text_2.started,text_5.started,key_resp.started,text_9.started,key_resp.keys,key_resp.rt,text_10.started,text_10.stopped,participant,Task,Dot Ratio,Deadline,date,expName,psychopyVersion,frameRate,
,,,,,,,,,,,,,,,,,,,,,,,,,82.77884580000136,space,10.689587099999699,,,,,,,,,,,,,,,,,,,,,,,,,,,,,,negar,2 - with skip,"60:40, 57:43","2.0s, 1.5s",2023-07-18_18h50.44.716,Rewa's Exp,2023.1.2,59.9154712533991,
,,,,,,,,,,,,,,,,,,,,,,,,,,,,None,,,,,,,,,,,,,,,,,,,,,,,,,,,,,negar,2 - with skip,"60:40, 57:43","2.0s, 1.5s",2023-07-18_18h50.44.716,Rewa's Exp,2023.1.2,59.9154712533991,
,,,,,,,,,,,,,,,,,,,,,,,,,,,,,93.48688980000043,space,18.62026689999766,,,,,,,,,,,,,,,,,,,,,,,,,,negar,2 - with skip,"60:40, 57:43","2.0s, 1.5s",2023-07-18_18h50.44.716,Rewa's Exp,2023.1.2,59.9154712533991,
Countdown_1.5s.mp4,red,green,right,Countdown_1.5s.jpg,0,0,0,0,0,0,0,0,,,,,,,,,,,,,,,,,,,,108.61087530000077,109.86188519999996,1.2510098999991897,None,0,space,1.2189146999971854,0,60:40,0,,,,,,,,,,,,,,,,negar,2 - with skip,"60:40, 57:43","2.0s, 1.5s",2023-07-18_18h50.44.716,Rewa's Exp,2023.1.2,59.9154712533991,
Countdown_1.5s.mp4,green,red,left,Countdown_1.5s.jpg,0,0,0,0,0,1,1,2,,,,,,,,,,,,,,,,,,,,113.76916379999966,114.57810590000008,0.8089421000004222,left,1,None,,1,60:40,1,0.7822587999980897,,,,,,,,,,,,,,,negar,2 - with skip,"60:40, 57:43","2.0s, 1.5s",2023-07-18_18h50.44.716,Rewa's Exp,2023.1.2,59.9154712533991,
Countdown_2s.mp4,green,red,left,Countdown_2s.jpg,0,0,0,0,0,2,2,3,,,,,,,,,,,,,,,,,,,,118.5434064000001,120.0278846000001,1.4844782000000123,left,1,None,,2,60:40,1,1.45432449999862,,,,,,,,,,,,,,,negar,2 - with skip,"60:40, 57:43","2.0s, 1.5s",2023-07-18_18h50.44.716,Rewa's Exp,2023.1.2,59.9154712533991,
Countdown_2s.mp4,red,green,right,Countdown_2s.jpg,0,0,0,0,0,3,3,1,,,,,,,,,,,,,,,,,,,,123.95789049999985,125.5446095999996,1.5867190999997547,left,0,None,,0,60:40,-2,1.5600331999976333,,,,,,,,,,,,,,,negar,2 - with skip,"60:40, 57:43","2.0s, 1.5s",2023-07-18_18h50.44.716,Rewa's Exp,2023.1.2,59.9154712533991,
Countdown_2s.mp4,green,red,left,Countdown_2s.jpg,0,0,0,0,1,0,4,3,,,,,,,,,,,,,,,,,,,,129.45215830000052,130.9119179999998,1.4597596999992675,left,1,None,,1,60:40,1,1.4263533999983338,,,,,,,,,,,,,,,negar,2 - with skip,"60:40, 57:43","2.0s, 1.5s",2023-07-18_18h50.44.716,Rewa's Exp,2023.1.2,59.9154712533991,
Countdown_2s.mp4,red,green,right,Countdown_2s.jpg,0,0,0,0,1,1,5,1,,,,,,,,,,,,,,,,,,,,134.82348099999945,136.327755100001,1.5042741000015667,right,1,None,,2,60:40,1,1.487504299997454,,,,,,,,,,,,,,,negar,2 - with skip,"60:40, 57:43","2.0s, 1.5s",2023-07-18_18h50.44.716,Rewa's Exp,2023.1.2,59.9154712533991,
Countdown_1.5s.mp4,red,green,right,Countdown_1.5s.jpg,0,0,0,0,1,2,6,0,,,,,,,,,,,,,,,,,,,,140.2519988999993,141.44517919999998,1.1931803000006767,right,1,None,,3,60:40,1,1.170266899996932,,,,,,,,,,,,,,,negar,2 - with skip,"60:40, 57:43","2.0s, 1.5s",2023-07-18_18h50.44.716,Rewa's Exp,2023.1.2,59.9154712533991,
Countdown_1.5s.mp4,green,red,left,Countdown_1.5s.jpg,0,0,0,0,1,3,7,2,,,,,,,,,,,,,,,,,,,,145.42032870000003,146.5612473000001,1.1409186000000773,left,1,None,,4,60:40,1,1.1135366999988037,,,,,,,,,,,,,,,negar,2 - with skip,"60:40, 57:43","2.0s, 1.5s",2023-07-18_18h50.44.716,Rewa's Exp,2023.1.2,59.9154712533991,
Countdown_2s.mp4,green,red,left,Countdown_2s.jpg,0,0,0,0,,,,,0,0,0,3,,,,,,,,,,,,,,,,150.2852254999998,151.7447900999996,1.4595645999997942,,,,,5,57:43,1,,156.46565259999988,left,1,1.4343704999973852,None,,,,,,,,,,negar,2 - with skip,"60:40, 57:43","2.0s, 1.5s",2023-07-18_18h50.44.716,Rewa's Exp,2023.1.2,59.9154712533991,
Countdown_2s.mp4,red,green,right,Countdown_2s.jpg,0,0,0,0,,,,,0,1,1,1,,,,,,,,,,,,,,,,155.64247389999946,157.02797570000075,1.3855018000012933,,,,,6,57:43,1,,161.82291670000086,right,1,1.3555554999984452,None,,,,,,,,,,negar,2 - with skip,"60:40, 57:43","2.0s, 1.5s",2023-07-18_18h50.44.716,Rewa's Exp,2023.1.2,59.9154712533991,
Countdown_1.5s.mp4,red,green,right,Countdown_1.5s.jpg,0,0,0,0,,,,,0,2,2,0,,,,,,,,,,,,,,,,160.9720684999993,162.17792510000072,1.2058566000014252,,,,,6,57:43,0,,167.1525027000007,None,0,,space,1.1868358999981865,,,,,,,,,negar,2 - with skip,"60:40, 57:43","2.0s, 1.5s",2023-07-18_18h50.44.716,Rewa's Exp,2023.1.2,59.9154712533991,
Countdown_1.5s.mp4,green,red,left,Countdown_1.5s.jpg,0,0,0,0,,,,,0,3,3,2,,,,,,,,,,,,,,,,166.09667679999984,167.32841250000092,1.2317357000010816,,,,,7,57:43,1,,172.27706279999984,left,1,1.2140757999986818,None,,,,,,,,,,negar,2 - with skip,"60:40, 57:43","2.0s, 1.5s",2023-07-18_18h50.44.716,Rewa's Exp,2023.1.2,59.9154712533991,
Countdown_1.5s.mp4,green,red,left,Countdown_1.5s.jpg,0,0,0,0,,,,,1,0,4,2,,,,,,,,,,,,,,,,171.25988549999965,172.54448109999976,1.2845956000001024,,,,,8,57:43,1,,177.4402955000005,left,1,1.2596229999981006,None,,,,,,,,,,negar,2 - with skip,"60:40, 57:43","2.0s, 1.5s",2023-07-18_18h50.44.716,Rewa's Exp,2023.1.2,59.9154712533991,
Countdown_2s.mp4,red,green,right,Countdown_2s.jpg,0,0,0,0,,,,,1,1,5,1,,,,,,,,,,,,,,,,176.46564109999963,178.0279380000011,1.5622969000014564,,,,,6,57:43,-2,,182.64609420000124,left,0,1.5407501999980013,None,,,,,,,,,,negar,2 - with skip,"60:40, 57:43","2.0s, 1.5s",2023-07-18_18h50.44.716,Rewa's Exp,2023.1.2,59.9154712533991,
Countdown_1.5s.mp4,red,green,right,Countdown_1.5s.jpg,0,0,0,0,,,,,1,2,6,0,,,,,,,,,,,,,,,,181.95900360000087,183.44476940000095,1.485765800000081,,,,,4,57:43,-2,,188.13923860000068,left,0,1.4803816999992705,None,,,,,,,,,,negar,2 - with skip,"60:40, 57:43","2.0s, 1.5s",2023-07-18_18h50.44.716,Rewa's Exp,2023.1.2,59.9154712533991,
Countdown_2s.mp4,green,red,left,Countdown_2s.jpg,0,0,0,0,,,,,1,3,7,3,,,,,,,,,,,,,,,,187.4019272000005,188.57788450000044,1.1759572999999364,,,,,5,57:43,1,,193.58235179999974,left,1,1.1573593999983132,None,,,,,,,,,,negar,2 - with skip,"60:40, 57:43","2.0s, 1.5s",2023-07-18_18h50.44.716,Rewa's Exp,2023.1.2,59.9154712533991,
Countdown_2s.mp4,green,red,left,Countdown_2s.jpg,0,0,0,0,,,,,,,,,0,0,0,2,0,0,0,3,,,,,,,,,,,,,,,,,,,,,,,,,195.8996874000004,195.8996874000004,195.8996874000004,195.8996874000004,space,5.687285099998917,,,negar,2 - with skip,"60:40, 57:43","2.0s, 1.5s",2023-07-18_18h50.44.716,Rewa's Exp,2023.1.2,59.9154712533991,
Countdown_2s.mp4,red,green,right,Countdown_2s.jpg,1,0,1,0,0,0,0,1,,,,,0,0,0,2,0,0,0,3,,,,,,,,198.22525420000056,199.67774950000057,1.4524953000000096,right,1,None,,6,60:40,1,1.420413899997584,,,,,,,,,,,,,,,negar,2 - with skip,"60:40, 57:43","2.0s, 1.5s",2023-07-18_18h50.44.716,Rewa's Exp,2023.1.2,59.9154712533991,
Countdown_2s.mp4,green,red,left,Countdown_2s.jpg,1,0,1,0,0,1,1,3,,,,,0,0,0,2,0,0,0,3,,,,,,,,203.6493513000005,205.36120010000013,1.7118487999996432,left,1,None,,7,60:40,1,1.6845964999993157,,,,,,,,,,,,,,,negar,2 - with skip,"60:40, 57:43","2.0s, 1.5s",2023-07-18_18h50.44.716,Rewa's Exp,2023.1.2,59.9154712533991,
Countdown_1.5s.mp4,red,green,right,Countdown_1.5s.jpg,1,0,1,0,0,2,2,0,,,,,0,0,0,2,0,0,0,3,,,,,,,,209.2710031000006,210.4277732999999,1.1567701999993005,right,1,None,,8,60:40,1,1.1271085999997013,,,,,,,,,,,,,,,negar,2 - with skip,"60:40, 57:43","2.0s, 1.5s",2023-07-18_18h50.44.716,Rewa's Exp,2023.1.2,59.9154712533991,
Countdown_1.5s.mp4,green,red,left,Countdown_1.5s.jpg,1,0,1,0,0,3,3,2,,,,,0,0,0,2,0,0,0,3,,,,,,,,214.38514530000066,215.59450339999967,1.2093580999990081,None,0,space,1.1807394999996177,8,60:40,0,,,,,,,,,,,,,,,,negar,2 - with skip,"60:40, 57:43","2.0s, 1.5s",2023-07-18_18h50.44.716,Rewa's Exp,2023.1.2,59.9154712533991,
Countdown_1.5s.mp4,red,green,right,Countdown_1.5s.jpg,1,0,1,0,1,0,4,0,,,,,0,0,0,2,0,0,0,3,,,,,,,,219.54869449999933,220.76106769999933,1.2123732000000018,right,1,None,,9,60:40,1,1.1850082000000839,,,,,,,,,,,,,,,negar,2 - with skip,"60:40, 57:43","2.0s, 1.5s",2023-07-18_18h50.44.716,Rewa's Exp,2023.1.2,59.9154712533991,
Countdown_2s.mp4,green,red,left,Countdown_2s.jpg,1,0,1,0,1,1,5,3,,,,,0,0,0,2,0,0,0,3,,,,,,,,224.71574040000087,226.32777589999932,1.6120354999984556,left,1,None,,10,60:40,1,1.5794600999997783,,,,,,,,,,,,,,,negar,2 - with skip,"60:40, 57:43","2.0s, 1.5s",2023-07-18_18h50.44.716,Rewa's Exp,2023.1.2,59.9154712533991,
Countdown_2s.mp4,red,green,right,Countdown_2s.jpg,1,0,1,0,1,2,6,1,,,,,0,0,0,2,0,0,0,3,,,,,,,,230.28683430000092,231.84435040000062,1.5575160999997024,right,1,None,,11,60:40,1,1.5274845999992976,,,,,,,,,,,,,,,negar,2 - with skip,"60:40, 57:43","2.0s, 1.5s",2023-07-18_18h50.44.716,Rewa's Exp,2023.1.2,59.9154712533991,
Countdown_1.5s.mp4,green,red,left,Countdown_1.5s.jpg,1,0,1,0,1,3,7,2,,,,,0,0,0,2,0,0,0,3,,,,,,,,235.80519819999972,237.0276690999999,1.2224709000001894,left,1,None,,12,60:40,1,1.2011528000002727,,,,,,,,,,,,,,,negar,2 - with skip,"60:40, 57:43","2.0s, 1.5s",2023-07-18_18h50.44.716,Rewa's Exp,2023.1.2,59.9154712533991,
Countdown_1.5s.mp4,green,red,left,Countdown_1.5s.jpg,1,0,1,0,,,,,0,0,0,2,0,0,0,2,0,0,0,3,,,,,,,,240.96628450000026,242.14449500000046,1.1782105000002048,,,,,13,57:43,1,,247.1467346999998,left,1,1.1608257999978377,None,,,,,,,,,,negar,2 - with skip,"60:40, 57:43","2.0s, 1.5s",2023-07-18_18h50.44.716,Rewa's Exp,2023.1.2,59.9154712533991,
Countdown_1.5s.mp4,red,green,right,Countdown_1.5s.jpg,1,0,1,0,,,,,0,1,1,0,0,0,0,2,0,0,0,3,,,,,,,,246.03389310000057,247.077882900001,1.0439898000004177,,,,,13,57:43,0,,252.21434610000142,None,0,,space,1.0196135999976832,,,,,,,,,negar,2 - with skip,"60:40, 57:43","2.0s, 1.5s",2023-07-18_18h50.44.716,Rewa's Exp,2023.1.2,59.9154712533991,
Countdown_2s.mp4,red,green,right,Countdown_2s.jpg,1,0,1,0,,,,,0,2,2,1,0,0,0,2,0,0,0,3,,,,,,,,251.0008197999996,252.57777309999983,1.5769533000002411,,,,,14,57:43,1,,257.18123689999993,right,1,1.5577421999987564,None,,,,,,,,,,negar,2 - with skip,"60:40, 57:43","2.0s, 1.5s",2023-07-18_18h50.44.716,Rewa's Exp,2023.1.2,59.9154712533991,
Countdown_2s.mp4,green,red,left,Countdown_2s.jpg,1,0,1,0,,,,,0,3,3,3,0,0,0,2,0,0,0,3,,,,,,,,256.4894452000008,258.1777538000006,1.6883085999998002,,,,,15,57:43,1,,262.66984480000065,left,1,1.661891599998853,None,,,,,,,,,,negar,2 - with skip,"60:40, 57:43","2.0s, 1.5s",2023-07-18_18h50.44.716,Rewa's Exp,2023.1.2,59.9154712533991,
Countdown_2s.mp4,green,red,left,Countdown_2s.jpg,1,0,1,0,,,,,1,0,4,3,0,0,0,2,0,0,0,3,,,,,,,,262.08719419999943,263.62788349999937,1.54068929999994,,,,,15,57:43,0,,268.2675741000003,None,0,,space,1.5189201999983197,,,,,,,,,negar,2 - with skip,"60:40, 57:43","2.0s, 1.5s",2023-07-18_18h50.44.716,Rewa's Exp,2023.1.2,59.9154712533991,
Countdown_1.5s.mp4,red,green,right,Countdown_1.5s.jpg,1,0,1,0,,,,,1,1,5,0,0,0,0,2,0,0,0,3,,,,,,,,267.5246508,268.9611423000006,1.4364915000005567,,,,,13,57:43,-2,,273.7050933999999,left,0,1.4091937999983202,None,,,,,,,,,,negar,2 - with skip,"60:40, 57:43","2.0s, 1.5s",2023-07-18_18h50.44.716,Rewa's Exp,2023.1.2,59.9154712533991,
Countdown_1.5s.mp4,green,red,left,Countdown_1.5s.jpg,1,0,1,0,,,,,1,2,6,2,0,0,0,2,0,0,0,3,,,,,,,,272.9212702999994,274.12767130000066,1.2064010000012786,,,,,14,57:43,1,,279.1017060000013,left,1,1.1897018999989086,None,,,,,,,,,,negar,2 - with skip,"60:40, 57:43","2.0s, 1.5s",2023-07-18_18h50.44.716,Rewa's Exp,2023.1.2,59.9154712533991,
Countdown_2s.mp4,red,green,right,Countdown_2s.jpg,1,0,1,0,,,,,1,3,7,1,0,0,0,2,0,0,0,3,,,,,,,,278.0422015000004,279.6112954,1.5690938999996433,,,,,15,57:43,1,,284.2226502000012,right,1,1.5481369999979506,None,,,,,,,,,,negar,2 - with skip,"60:40, 57:43","2.0s, 1.5s",2023-07-18_18h50.44.716,Rewa's Exp,2023.1.2,59.9154712533991,
Countdown_2s.mp4,red,green,right,Countdown_2s.jpg,1,0,1,0,,,,,,,,,0,0,0,0,0,0,0,1,,,,,,,,,,,,,,,,,,,,,,,,,286.9309580000008,286.9309580000008,286.9309580000008,286.9309580000008,space,7.207339599997795,,,negar,2 - with skip,"60:40, 57:43","2.0s, 1.5s",2023-07-18_18h50.44.716,Rewa's Exp,2023.1.2,59.9154712533991,
Countdown_1.5s.mp4,green,red,left,Countdown_1.5s.jpg,2,0,2,0,0,0,0,2,,,,,0,0,0,0,0,0,0,1,,,,,,,,290.78815960000065,292.12785559999975,1.339695999999094,left,1,None,,16,60:40,1,1.314321599997129,,,,,,,,,,,,,,,negar,2 - with skip,"60:40, 57:43","2.0s, 1.5s",2023-07-18_18h50.44.716,Rewa's Exp,2023.1.2,59.9154712533991,
Countdown_2s.mp4,red,green,right,Countdown_2s.jpg,2,0,2,0,0,1,1,1,,,,,0,0,0,0,0,0,0,1,,,,,,,,296.02219689999947,297.71125849999953,1.6890616000000591,right,1,None,,17,60:40,1,1.6632399999980407,,,,,,,,,,,,,,,negar,2 - with skip,"60:40, 57:43","2.0s, 1.5s",2023-07-18_18h50.44.716,Rewa's Exp,2023.1.2,59.9154712533991,
Countdown_1.5s.mp4,red,green,right,Countdown_1.5s.jpg,2,0,2,0,0,2,2,0,,,,,0,0,0,0,0,0,0,1,,,,,,,,301.64403069999935,303.02769380000063,1.3836631000012858,right,1,None,,18,60:40,1,1.3621903999974165,,,,,,,,,,,,,,,negar,2 - with skip,"60:40, 57:43","2.0s, 1.5s",2023-07-18_18h50.44.716,Rewa's Exp,2023.1.2,59.9154712533991,
Countdown_2s.mp4,green,red,left,Countdown_2s.jpg,2,0,2,0,0,3,3,3,,,,,0,0,0,0,0,0,0,1,,,,,,,,306.9141715000005,308.74459320000096,1.8304217000004428,left,1,None,,19,60:40,1,1.8118846999987,,,,,,,,,,,,,,,negar,2 - with skip,"60:40, 57:43","2.0s, 1.5s",2023-07-18_18h50.44.716,Rewa's Exp,2023.1.2,59.9154712533991,
Countdown_2s.mp4,red,green,right,Countdown_2s.jpg,2,0,2,0,1,0,4,1,,,,,0,0,0,0,0,0,0,1,,,,,,,,312.6713354000003,314.36103120000007,1.689695799999754,right,1,None,,20,60:40,1,1.6620682999982819,,,,,,,,,,,,,,,negar,2 - with skip,"60:40, 57:43","2.0s, 1.5s",2023-07-18_18h50.44.716,Rewa's Exp,2023.1.2,59.9154712533991,
Countdown_2s.mp4,green,red,left,Countdown_2s.jpg,2,0,2,0,1,1,5,3,,,,,0,0,0,0,0,0,0,1,,,,,,,,318.2710009000002,319.9277168999997,1.6567159999995056,left,1,None,,21,60:40,1,1.6395122999983869,,,,,,,,,,,,,,,negar,2 - with skip,"60:40, 57:43","2.0s, 1.5s",2023-07-18_18h50.44.716,Rewa's Exp,2023.1.2,59.9154712533991,
Countdown_1.5s.mp4,green,red,left,Countdown_1.5s.jpg,2,0,2,0,1,2,6,2,,,,,0,0,0,0,0,0,0,1,,,,,,,,323.835764200001,325.26106400000026,1.4252997999992658,None,0,space,1.4023758999992424,21,60:40,0,,,,,,,,,,,,,,,,negar,2 - with skip,"60:40, 57:43","2.0s, 1.5s",2023-07-18_18h50.44.716,Rewa's Exp,2023.1.2,59.9154712533991,
Countdown_1.5s.mp4,red,green,right,Countdown_1.5s.jpg,2,0,2,0,1,3,7,0,,,,,0,0,0,0,0,0,0,1,,,,,,,,329.1871298999995,330.2612411000009,1.0741112000014255,right,1,None,,22,60:40,1,1.0512345999995887,,,,,,,,,,,,,,,negar,2 - with skip,"60:40, 57:43","2.0s, 1.5s",2023-07-18_18h50.44.716,Rewa's Exp,2023.1.2,59.9154712533991,
Countdown_2s.mp4,green,red,left,Countdown_2s.jpg,2,0,2,0,,,,,0,0,0,3,0,0,0,0,0,0,0,1,,,,,,,,334.22497230000045,335.92764030000035,1.7026679999999033,,,,,23,57:43,1,,340.4054391000009,left,1,1.685016799998266,None,,,,,,,,,,negar,2 - with skip,"60:40, 57:43","2.0s, 1.5s",2023-07-18_18h50.44.716,Rewa's Exp,2023.1.2,59.9154712533991,
Countdown_1.5s.mp4,green,red,left,Countdown_1.5s.jpg,2,0,2,0,,,,,0,1,1,2,0,0,0,0,0,0,0,1,,,,,,,,339.82333629999994,340.96102840000094,1.1376921000010043,,,,,23,57:43,0,,346.00379860000066,None,0,,space,1.118200999999317,,,,,,,,,negar,2 - with skip,"60:40, 57:43","2.0s, 1.5s",2023-07-18_18h50.44.716,Rewa's Exp,2023.1.2,59.9154712533991,
Countdown_2s.mp4,red,green,right,Countdown_2s.jpg,2,0,2,0,,,,,0,2,2,1,0,0,0,0,0,0,0,1,,,,,,,,344.8558456999999,346.3283291000007,1.4724834000007831,,,,,24,57:43,1,,351.03625920000013,right,1,1.454850099999021,None,,,,,,,,,,negar,2 - with skip,"60:40, 57:43","2.0s, 1.5s",2023-07-18_18h50.44.716,Rewa's Exp,2023.1.2,59.9154712533991,
Countdown_1.5s.mp4,red,green,right,Countdown_1.5s.jpg,2,0,2,0,,,,,0,3,3,0,0,0,0,0,0,0,0,1,,,,,,,,350.2610502000007,351.4443289999999,1.1832787999992433,,,,,22,57:43,-2,,356.4414886000013,left,0,1.1528204999995069,None,,,,,,,,,,negar,2 - with skip,"60:40, 57:43","2.0s, 1.5s",2023-07-18_18h50.44.716,Rewa's Exp,2023.1.2,59.9154712533991,
Countdown_1.5s.mp4,red,green,right,Countdown_1.5s.jpg,2,0,2,0,,,,,1,0,4,0,0,0,0,0,0,0,0,1,,,,,,,,355.33433999999943,356.7110718999993,1.376731899999868,,,,,20,57:43,-2,,361.5147996000014,left,0,1.3443393999987165,None,,,,,,,,,,negar,2 - with skip,"60:40, 57:43","2.0s, 1.5s",2023-07-18_18h50.44.716,Rewa's Exp,2023.1.2,59.9154712533991,
Countdown_1.5s.mp4,green,red,left,Countdown_1.5s.jpg,2,0,2,0,,,,,1,1,5,2,0,0,0,0,0,0,0,1,,,,,,,,360.61374179999984,361.7276801000007,1.113938300000882,,,,,21,57:43,1,,366.79419450000023,left,1,1.0966834999981074,None,,,,,,,,,,negar,2 - with skip,"60:40, 57:43","2.0s, 1.5s",2023-07-18_18h50.44.716,Rewa's Exp,2023.1.2,59.9154712533991,
Countdown_2s.mp4,green,red,left,Countdown_2s.jpg,2,0,2,0,,,,,1,2,6,3,0,0,0,0,0,0,0,1,,,,,,,,365.65002579999964,367.1111430000001,1.4611172000004444,,,,,22,57:43,1,,371.8303962000009,left,1,1.436463799997,None,,,,,,,,,,negar,2 - with skip,"60:40, 57:43","2.0s, 1.5s",2023-07-18_18h50.44.716,Rewa's Exp,2023.1.2,59.9154712533991,
Countdown_2s.mp4,red,green,right,Countdown_2s.jpg,2,0,2,0,,,,,1,3,7,1,0,0,0,0,0,0,0,1,,,,,,,,371.0191154999993,372.6276835000008,1.608568000001469,,,,,20,57:43,-2,,377.19949270000143,left,0,1.5783623999977863,None,,,,,,,,,,negar,2 - with skip,"60:40, 57:43","2.0s, 1.5s",2023-07-18_18h50.44.716,Rewa's Exp,2023.1.2,59.9154712533991,
Countdown_1.5s.mp4,green,red,left,Countdown_1.5s.jpg,2,0,2,0,,,,,,,,,0,0,0,0,0,0,0,2,,,,,,,,,,,,,,,,,,,,,,,,,379.96164080000017,379.96164080000017,379.96164080000017,379.96164080000017,space,22.936615699998583,,,negar,2 - with skip,"60:40, 57:43","2.0s, 1.5s",2023-07-18_18h50.44.716,Rewa's Exp,2023.1.2,59.9154712533991,
Countdown_1.5s.mp4,red,green,right,Countdown_1.5s.jpg,3,0,3,0,0,0,0,0,,,,,0,0,0,0,0,0,0,2,,,,,,,,399.4895852999998,400.71109720000095,1.2215119000011327,right,1,None,,21,60:40,1,1.1966784999985975,,,,,,,,,,,,,,,negar,2 - with skip,"60:40, 57:43","2.0s, 1.5s",2023-07-18_18h50.44.716,Rewa's Exp,2023.1.2,59.9154712533991,
Countdown_2s.mp4,red,green,right,Countdown_2s.jpg,3,0,3,0,0,1,1,1,,,,,0,0,0,0,0,0,0,2,,,,,,,,404.59481869999945,406.3610208000009,1.7662021000014647,None,0,space,1.7469842999980756,21,60:40,0,,,,,,,,,,,,,,,,negar,2 - with skip,"60:40, 57:43","2.0s, 1.5s",2023-07-18_18h50.44.716,Rewa's Exp,2023.1.2,59.9154712533991,
Countdown_2s.mp4,green,red,left,Countdown_2s.jpg,3,0,3,0,0,2,2,3,,,,,0,0,0,0,0,0,0,2,,,,,,,,410.27555050000046,411.96116729999994,1.6856167999994796,left,1,None,,22,60:40,1,1.6587326999979268,,,,,,,,,,,,,,,negar,2 - with skip,"60:40, 57:43","2.0s, 1.5s",2023-07-18_18h50.44.716,Rewa's Exp,2023.1.2,59.9154712533991,
Countdown_1.5s.mp4,green,red,left,Countdown_1.5s.jpg,3,0,3,0,0,3,3,2,,,,,0,0,0,0,0,0,0,2,,,,,,,,415.86005190000105,417.14431400000103,1.284262099999978,right,0,None,,20,60:40,-2,1.257319099997403,,,,,,,,,,,,,,,negar,2 - with skip,"60:40, 57:43","2.0s, 1.5s",2023-07-18_18h50.44.716,Rewa's Exp,2023.1.2,59.9154712533991,
Countdown_1.5s.mp4,red,green,right,Countdown_1.5s.jpg,3,0,3,0,1,0,4,0,,,,,0,0,0,0,0,0,0,2,,,,,,,,421.10866069999975,422.4609806999997,1.3523199999999633,left,0,None,,18,60:40,-2,1.3294341000000713,,,,,,,,,,,,,,,negar,2 - with skip,"60:40, 57:43","2.0s, 1.5s",2023-07-18_18h50.44.716,Rewa's Exp,2023.1.2,59.9154712533991,
Countdown_2s.mp4,green,red,left,Countdown_2s.jpg,3,0,3,0,1,1,5,3,,,,,0,0,0,0,0,0,0,2,,,,,,,,426.42421749999994,427.6443450000006,1.2201275000006717,left,1,None,,19,60:40,1,1.189151499997024,,,,,,,,,,,,,,,negar,2 - with skip,"60:40, 57:43","2.0s, 1.5s",2023-07-18_18h50.44.716,Rewa's Exp,2023.1.2,59.9154712533991,
Countdown_2s.mp4,red,green,right,Countdown_2s.jpg,3,0,3,0,1,2,6,1,,,,,0,0,0,0,0,0,0,2,,,,,,,,431.5610149999993,433.19441709999955,1.6334021000002394,right,1,None,,20,60:40,1,1.6133314999988215,,,,,,,,,,,,,,,negar,2 - with skip,"60:40, 57:43","2.0s, 1.5s",2023-07-18_18h50.44.716,Rewa's Exp,2023.1.2,59.9154712533991,
Countdown_1.5s.mp4,green,red,left,Countdown_1.5s.jpg,3,0,3,0,1,3,7,2,,,,,0,0,0,0,0,0,0,2,,,,,,,,437.1640729999999,438.5444072999999,1.3803342999999586,left,1,None,,21,60:40,1,1.3623897999987093,,,,,,,,,,,,,,,negar,2 - with skip,"60:40, 57:43","2.0s, 1.5s",2023-07-18_18h50.44.716,Rewa's Exp,2023.1.2,59.9154712533991,
Countdown_1.5s.mp4,red,green,right,Countdown_1.5s.jpg,3,0,3,0,,,,,0,0,0,0,0,0,0,0,0,0,0,2,,,,,,,,442.49126550000074,443.81097190000037,1.3197063999996317,,,,,19,57:43,-2,,448.6716230000002,left,0,1.2991290999998455,None,,,,,,,,,,negar,2 - with skip,"60:40, 57:43","2.0s, 1.5s",2023-07-18_18h50.44.716,Rewa's Exp,2023.1.2,59.9154712533991,
Countdown_2s.mp4,green,red,left,Countdown_2s.jpg,3,0,3,0,,,,,0,1,1,3,0,0,0,0,0,0,0,2,,,,,,,,447.7184696000004,449.54429119999986,1.8258215999994718,,,,,20,57:43,1,,453.8988397000012,left,1,1.8007904999994935,None,,,,,,,,,,negar,2 - with skip,"60:40, 57:43","2.0s, 1.5s",2023-07-18_18h50.44.716,Rewa's Exp,2023.1.2,59.9154712533991,
Countdown_2s.mp4,red,green,right,Countdown_2s.jpg,3,0,3,0,,,,,0,2,2,1,0,0,0,0,0,0,0,2,,,,,,,,453.48425119999956,455.31096660000003,1.8267154000004666,,,,,21,57:43,1,,459.6636599000012,right,1,1.7953492999986338,None,,,,,,,,,,negar,2 - with skip,"60:40, 57:43","2.0s, 1.5s",2023-07-18_18h50.44.716,Rewa's Exp,2023.1.2,59.9154712533991,
Countdown_1.5s.mp4,green,red,left,Countdown_1.5s.jpg,3,0,3,0,,,,,0,3,3,2,0,0,0,0,0,0,0,2,,,,,,,,459.2788390000005,460.5442579999999,1.2654189999993832,,,,,22,57:43,1,,465.45928020000065,left,1,1.239096499997686,None,,,,,,,,,,negar,2 - with skip,"60:40, 57:43","2.0s, 1.5s",2023-07-18_18h50.44.716,Rewa's Exp,2023.1.2,59.9154712533991,
Countdown_1.5s.mp4,green,red,left,Countdown_1.5s.jpg,3,0,3,0,,,,,1,0,4,2,0,0,0,0,0,0,0,2,,,,,,,,464.4783626999997,465.7776524000001,1.2992897000003722,,,,,22,57:43,0,,470.6587610000006,None,0,,space,1.2793200999985856,,,,,,,,,negar,2 - with skip,"60:40, 57:43","2.0s, 1.5s",2023-07-18_18h50.44.716,Rewa's Exp,2023.1.2,59.9154712533991,
Countdown_2s.mp4,red,green,right,Countdown_2s.jpg,3,0,3,0,,,,,1,1,5,1,0,0,0,0,0,0,0,2,,,,,,,,469.69619910000074,471.0608893999997,1.3646902999989834,,,,,23,57:43,1,,475.8766088000011,right,1,1.3343244999978197,None,,,,,,,,,,negar,2 - with skip,"60:40, 57:43","2.0s, 1.5s",2023-07-18_18h50.44.716,Rewa's Exp,2023.1.2,59.9154712533991,
Countdown_2s.mp4,green,red,left,Countdown_2s.jpg,3,0,3,0,,,,,1,2,6,3,0,0,0,0,0,0,0,2,,,,,,,,474.9765851000011,476.7943389000011,1.8177537999999913,,,,,21,57:43,-2,,481.156899900001,right,0,1.7971786999987671,None,,,,,,,,,,negar,2 - with skip,"60:40, 57:43","2.0s, 1.5s",2023-07-18_18h50.44.716,Rewa's Exp,2023.1.2,59.9154712533991,
Countdown_1.5s.mp4,red,green,right,Countdown_1.5s.jpg,3,0,3,0,,,,,1,3,7,0,0,0,0,0,0,0,0,2,,,,,,,,480.6857054000011,481.894283900001,1.2085784999999305,,,,,19,57:43,-2,,486.8661821000005,left,0,1.1919401999984984,None,,,,,,,,,,negar,2 - with skip,"60:40, 57:43","2.0s, 1.5s",2023-07-18_18h50.44.716,Rewa's Exp,2023.1.2,59.9154712533991,
Countdown_1.5s.mp4,red,green,right,Countdown_1.5s.jpg,3,0,3,0,,,,,,,,,0,0,0,3,0,0,0,0,,,,,,,,,,,,,,,,,,,,,,,,,489.21379640000123,489.21379640000123,489.21379640000123,489.21379640000123,space,50.84388069999841,,,negar,2 - with skip,"60:40, 57:43","2.0s, 1.5s",2023-07-18_18h50.44.716,Rewa's Exp,2023.1.2,59.9154712533991,
Countdown_2s.mp4,red,green,right,Countdown_2s.jpg,4,0,4,0,0,0,0,1,,,,,0,0,0,3,0,0,0,0,,,,,,,,536.7028123,538.2441271000007,1.5413148000006913,right,1,None,,20,60:40,1,1.5181616999998369,,,,,,,,,,,,,,,negar,2 - with skip,"60:40, 57:43","2.0s, 1.5s",2023-07-18_18h50.44.716,Rewa's Exp,2023.1.2,59.9154712533991,
Countdown_1.5s.mp4,green,red,left,Countdown_1.5s.jpg,4,0,4,0,0,1,1,2,,,,,0,0,0,3,0,0,0,0,,,,,,,,542.1445392000005,543.5608716000006,1.4163324000001012,left,1,None,,21,60:40,1,1.3896879999992962,,,,,,,,,,,,,,,negar,2 - with skip,"60:40, 57:43","2.0s, 1.5s",2023-07-18_18h50.44.716,Rewa's Exp,2023.1.2,59.9154712533991,
Countdown_2s.mp4,green,red,left,Countdown_2s.jpg,4,0,4,0,0,2,2,3,,,,,0,0,0,3,0,0,0,0,,,,,,,,547.4763406000002,549.2108544000002,1.7345138000000588,left,1,None,,22,60:40,1,1.7132768999981636,,,,,,,,,,,,,,,negar,2 - with skip,"60:40, 57:43","2.0s, 1.5s",2023-07-18_18h50.44.716,Rewa's Exp,2023.1.2,59.9154712533991,
Countdown_1.5s.mp4,red,green,right,Countdown_1.5s.jpg,4,0,4,0,0,3,3,0,,,,,0,0,0,3,0,0,0,0,,,,,,,,553.1128831999995,554.3442286999998,1.231345500000316,right,1,None,,23,60:40,1,1.2047809999985475,,,,,,,,,,,,,,,negar,2 - with skip,"60:40, 57:43","2.0s, 1.5s",2023-07-18_18h50.44.716,Rewa's Exp,2023.1.2,59.9154712533991,
Countdown_1.5s.mp4,red,green,right,Countdown_1.5s.jpg,4,0,4,0,1,0,4,0,,,,,0,0,0,3,0,0,0,0,,,,,,,,558.2663420000008,559.4944818999993,1.2281398999984958,right,1,None,,24,60:40,1,1.1959023999970668,,,,,,,,,,,,,,,negar,2 - with skip,"60:40, 57:43","2.0s, 1.5s",2023-07-18_18h50.44.716,Rewa's Exp,2023.1.2,59.9154712533991,
Countdown_1.5s.mp4,green,red,left,Countdown_1.5s.jpg,4,0,4,0,1,1,5,2,,,,,0,0,0,3,0,0,0,0,,,,,,,,563.4281668000003,564.9109676000007,1.4828008000004047,left,1,None,,25,60:40,1,1.4500480999995489,,,,,,,,,,,,,,,negar,2 - with skip,"60:40, 57:43","2.0s, 1.5s",2023-07-18_18h50.44.716,Rewa's Exp,2023.1.2,59.9154712533991,
Countdown_2s.mp4,green,red,left,Countdown_2s.jpg,4,0,4,0,1,2,6,3,,,,,0,0,0,3,0,0,0,0,,,,,,,,568.8546968999999,570.4275216999995,1.5728247999995801,left,1,None,,26,60:40,1,1.5442083999987517,,,,,,,,,,,,,,,negar,2 - with skip,"60:40, 57:43","2.0s, 1.5s",2023-07-18_18h50.44.716,Rewa's Exp,2023.1.2,59.9154712533991,
Countdown_2s.mp4,red,green,right,Countdown_2s.jpg,4,0,4,0,1,3,7,1,,,,,0,0,0,3,0,0,0,0,,,,,,,,574.3456330000008,575.8442052000009,1.498572200000126,right,1,None,,27,60:40,1,1.4680668999990303,,,,,,,,,,,,,,,negar,2 - with skip,"60:40, 57:43","2.0s, 1.5s",2023-07-18_18h50.44.716,Rewa's Exp,2023.1.2,59.9154712533991,
Countdown_1.5s.mp4,red,green,right,Countdown_1.5s.jpg,4,0,4,0,,,,,0,0,0,0,0,0,0,3,0,0,0,0,,,,,,,,579.7464227,581.094286900001,1.3478642000009131,,,,,25,57:43,-2,,585.9265489999998,left,0,1.3307699999986653,None,,,,,,,,,,negar,2 - with skip,"60:40, 57:43","2.0s, 1.5s",2023-07-18_18h50.44.716,Rewa's Exp,2023.1.2,59.9154712533991,
Countdown_1.5s.mp4,green,red,left,Countdown_1.5s.jpg,4,0,4,0,,,,,0,1,1,2,0,0,0,3,0,0,0,0,,,,,,,,585.0635017000004,586.2773686,1.2138668999996298,,,,,25,57:43,0,,591.2439950000007,None,0,,space,1.190625799998088,,,,,,,,,negar,2 - with skip,"60:40, 57:43","2.0s, 1.5s",2023-07-18_18h50.44.716,Rewa's Exp,2023.1.2,59.9154712533991,
Countdown_2s.mp4,green,red,left,Countdown_2s.jpg,4,0,4,0,,,,,0,2,2,3,0,0,0,3,0,0,0,0,,,,,,,,590.2281206999996,591.9106611000007,1.6825404000010167,,,,,26,57:43,1,,596.4085260000011,left,1,1.6656186000000162,None,,,,,,,,,,negar,2 - with skip,"60:40, 57:43","2.0s, 1.5s",2023-07-18_18h50.44.716,Rewa's Exp,2023.1.2,59.9154712533991,
Countdown_2s.mp4,red,green,right,Countdown_2s.jpg,4,0,4,0,,,,,0,3,3,1,0,0,0,3,0,0,0,0,,,,,,,,595.8333457999997,597.1774559000005,1.344110100000762,,,,,27,57:43,1,,602.0136992000007,right,1,1.3164231999980984,None,,,,,,,,,,negar,2 - with skip,"60:40, 57:43","2.0s, 1.5s",2023-07-18_18h50.44.716,Rewa's Exp,2023.1.2,59.9154712533991,
Countdown_1.5s.mp4,red,green,right,Countdown_1.5s.jpg,4,0,4,0,,,,,1,0,4,0,0,0,0,3,0,0,0,0,,,,,,,,601.1069719000006,602.1443230000004,1.0373510999997961,,,,,28,57:43,1,,607.2870004000015,right,1,1.0196673999980703,None,,,,,,,,,,negar,2 - with skip,"60:40, 57:43","2.0s, 1.5s",2023-07-18_18h50.44.716,Rewa's Exp,2023.1.2,59.9154712533991,
Countdown_2s.mp4,red,green,right,Countdown_2s.jpg,4,0,4,0,,,,,1,1,5,1,0,0,0,3,0,0,0,0,,,,,,,,606.1125305999994,607.677565,1.5650344000005134,,,,,29,57:43,1,,612.2928979000008,right,1,1.5414322999986325,None,,,,,,,,,,negar,2 - with skip,"60:40, 57:43","2.0s, 1.5s",2023-07-18_18h50.44.716,Rewa's Exp,2023.1.2,59.9154712533991,
Countdown_1.5s.mp4,green,red,left,Countdown_1.5s.jpg,4,0,4,0,,,,,1,2,6,2,0,0,0,3,0,0,0,0,,,,,,,,611.6005136000003,612.7607528000008,1.160239200000433,,,,,30,57:43,1,,617.7808949000009,left,1,1.132510599998568,None,,,,,,,,,,negar,2 - with skip,"60:40, 57:43","2.0s, 1.5s",2023-07-18_18h50.44.716,Rewa's Exp,2023.1.2,59.9154712533991,
Countdown_2s.mp4,green,red,left,Countdown_2s.jpg,4,0,4,0,,,,,1,3,7,3,0,0,0,3,0,0,0,0,,,,,,,,616.6724673000008,618.3941338999994,1.7216665999985707,,,,,28,57:43,-2,,622.8528414000011,right,0,1.6925713999971777,None,,,,,,,,,,negar,2 - with skip,"60:40, 57:43","2.0s, 1.5s",2023-07-18_18h50.44.716,Rewa's Exp,2023.1.2,59.9154712533991,
Countdown_2s.mp4,green,red,left,Countdown_2s.jpg,4,0,4,0,,,,,,,,,0,0,0,1,0,0,0,3,,,,,,,,,,,,,,,,,,,,,,,,,625.7300583000015,625.7300583000015,625.7300583000015,625.7300583000015,space,2.8071174999986397,,,negar,2 - with skip,"60:40, 57:43","2.0s, 1.5s",2023-07-18_18h50.44.716,Rewa's Exp,2023.1.2,59.9154712533991,
Countdown_1.5s.mp4,green,red,left,Countdown_1.5s.jpg,5,0,5,0,0,0,0,2,,,,,0,0,0,1,0,0,0,3,,,,,,,,625.1953589999994,626.3109291000001,1.1155701000006957,left,1,None,,29,60:40,1,1.097573299997748,,,,,,,,,,,,,,,negar,2 - with skip,"60:40, 57:43","2.0s, 1.5s",2023-07-18_18h50.44.716,Rewa's Exp,2023.1.2,59.9154712533991,
Countdown_2s.mp4,red,green,right,Countdown_2s.jpg,5,0,5,0,0,1,1,1,,,,,0,0,0,1,0,0,0,3,,,,,,,,630.2869608000001,632.0607648000005,1.773804000000382,right,1,None,,30,60:40,1,1.7502801999999065,,,,,,,,,,,,,,,negar,2 - with skip,"60:40, 57:43","2.0s, 1.5s",2023-07-18_18h50.44.716,Rewa's Exp,2023.1.2,59.9154712533991,
Countdown_1.5s.mp4,red,green,right,Countdown_1.5s.jpg,5,0,5,0,0,2,2,0,,,,,0,0,0,1,0,0,0,3,,,,,,,,635.9616430999995,637.210999500001,1.2493564000014885,right,1,None,,31,60:40,1,1.2200580999979138,,,,,,,,,,,,,,,negar,2 - with skip,"60:40, 57:43","2.0s, 1.5s",2023-07-18_18h50.44.716,Rewa's Exp,2023.1.2,59.9154712533991,
Countdown_2s.mp4,green,red,left,Countdown_2s.jpg,5,0,5,0,0,3,3,3,,,,,0,0,0,1,0,0,0,3,,,,,,,,641.1269250999994,642.8440353000005,1.717110200001116,None,0,space,1.6862282999973104,31,60:40,0,,,,,,,,,,,,,,,,negar,2 - with skip,"60:40, 57:43","2.0s, 1.5s",2023-07-18_18h50.44.716,Rewa's Exp,2023.1.2,59.9154712533991,
Countdown_2s.mp4,red,green,right,Countdown_2s.jpg,5,0,5,0,1,0,4,1,,,,,0,0,0,1,0,0,0,3,,,,,,,,646.7515466000004,647.9445221999995,1.1929755999990448,right,1,None,,32,60:40,1,1.1658186999993632,,,,,,,,,,,,,,,negar,2 - with skip,"60:40, 57:43","2.0s, 1.5s",2023-07-18_18h50.44.716,Rewa's Exp,2023.1.2,59.9154712533991,
Countdown_1.5s.mp4,green,red,left,Countdown_1.5s.jpg,5,0,5,0,1,1,5,2,,,,,0,0,0,1,0,0,0,3,,,,,,,,651.8824036000005,653.2774012999998,1.3949976999992941,left,1,None,,33,60:40,1,1.3627910999985033,,,,,,,,,,,,,,,negar,2 - with skip,"60:40, 57:43","2.0s, 1.5s",2023-07-18_18h50.44.716,Rewa's Exp,2023.1.2,59.9154712533991,
Countdown_2s.mp4,green,red,left,Countdown_2s.jpg,5,0,5,0,1,2,6,3,,,,,0,0,0,1,0,0,0,3,,,,,,,,657.2300624,658.8940490999994,1.663986699999441,left,1,None,,34,60:40,1,1.6405876999979228,,,,,,,,,,,,,,,negar,2 - with skip,"60:40, 57:43","2.0s, 1.5s",2023-07-18_18h50.44.716,Rewa's Exp,2023.1.2,59.9154712533991,
Countdown_1.5s.mp4,red,green,right,Countdown_1.5s.jpg,5,0,5,0,1,3,7,0,,,,,0,0,0,1,0,0,0,3,,,,,,,,662.8383974000008,664.0773747000003,1.238977299999533,right,1,None,,35,60:40,1,1.2142012999975123,,,,,,,,,,,,,,,negar,2 - with skip,"60:40, 57:43","2.0s, 1.5s",2023-07-18_18h50.44.716,Rewa's Exp,2023.1.2,59.9154712533991,
Countdown_1.5s.mp4,red,green,right,Countdown_1.5s.jpg,5,0,5,0,,,,,0,0,0,0,0,0,0,1,0,0,0,3,,,,,,,,668.0003448000007,669.2441925000003,1.2438476999996055,,,,,36,57:43,1,,674.1807234000007,right,1,1.212689499998305,None,,,,,,,,,,negar,2 - with skip,"60:40, 57:43","2.0s, 1.5s",2023-07-18_18h50.44.716,Rewa's Exp,2023.1.2,59.9154712533991,
Countdown_2s.mp4,red,green,right,Countdown_2s.jpg,5,0,5,0,,,,,0,1,1,1,0,0,0,1,0,0,0,3,,,,,,,,673.1515632999999,674.8609569,1.7093936000001122,,,,,37,57:43,1,,679.3319397000014,right,1,1.6855090999979438,None,,,,,,,,,,negar,2 - with skip,"60:40, 57:43","2.0s, 1.5s",2023-07-18_18h50.44.716,Rewa's Exp,2023.1.2,59.9154712533991,
Countdown_2s.mp4,green,red,left,Countdown_2s.jpg,5,0,5,0,,,,,0,2,2,3,0,0,0,1,0,0,0,3,,,,,,,,678.8000628000009,680.2773293000009,1.4772665000000416,,,,,35,57:43,-2,,684.9804865000006,right,0,1.4541227999980038,None,,,,,,,,,,negar,2 - with skip,"60:40, 57:43","2.0s, 1.5s",2023-07-18_18h50.44.716,Rewa's Exp,2023.1.2,59.9154712533991,
Countdown_1.5s.mp4,green,red,left,Countdown_1.5s.jpg,5,0,5,0,,,,,0,3,3,2,0,0,0,1,0,0,0,3,,,,,,,,684.1933609000007,685.4439990999999,1.25063819999923,,,,,36,57:43,1,,690.3737845000014,left,1,1.2279498999978387,None,,,,,,,,,,negar,2 - with skip,"60:40, 57:43","2.0s, 1.5s",2023-07-18_18h50.44.716,Rewa's Exp,2023.1.2,59.9154712533991,
Countdown_1.5s.mp4,green,red,left,Countdown_1.5s.jpg,5,0,5,0,,,,,1,0,4,2,0,0,0,1,0,0,0,3,,,,,,,,689.3996996999995,690.5275858999994,1.1278861999999208,,,,,37,57:43,1,,695.5800971000008,left,1,1.1022836999982246,None,,,,,,,,,,negar,2 - with skip,"60:40, 57:43","2.0s, 1.5s",2023-07-18_18h50.44.716,Rewa's Exp,2023.1.2,59.9154712533991,
Countdown_2s.mp4,green,red,left,Countdown_2s.jpg,5,0,5,0,,,,,1,1,5,3,0,0,0,1,0,0,0,3,,,,,,,,694.4140444999994,695.6270774000004,1.2130329000010533,,,,,35,57:43,-2,,700.5943532000001,right,0,1.1910778999990725,None,,,,,,,,,,negar,2 - with skip,"60:40, 57:43","2.0s, 1.5s",2023-07-18_18h50.44.716,Rewa's Exp,2023.1.2,59.9154712533991,
Countdown_1.5s.mp4,red,green,right,Countdown_1.5s.jpg,5,0,5,0,,,,,1,2,6,0,0,0,0,1,0,0,0,3,,,,,,,,699.5272815000008,700.7772438000011,1.249962300000334,,,,,33,57:43,-2,,705.7076342,left,0,1.2222410999984277,None,,,,,,,,,,negar,2 - with skip,"60:40, 57:43","2.0s, 1.5s",2023-07-18_18h50.44.716,Rewa's Exp,2023.1.2,59.9154712533991,
Countdown_2s.mp4,red,green,right,Countdown_2s.jpg,5,0,5,0,,,,,1,3,7,1,0,0,0,1,0,0,0,3,,,,,,,,704.7336764000011,706.0446245000003,1.310948099999223,,,,,34,57:43,1,,710.9140258000007,right,1,1.2869753999984823,None,,,,,,,,,,negar,2 - with skip,"60:40, 57:43","2.0s, 1.5s",2023-07-18_18h50.44.716,Rewa's Exp,2023.1.2,59.9154712533991,
Countdown_1.5s.mp4,red,green,right,Countdown_1.5s.jpg,5,0,5,0,,,,,,,,,0,0,0,0,0,0,0,0,,,,,,,,,,,,,,,,,,,,,,,,,713.4029541,713.4029541,713.4029541,713.4029541,space,1.3437968999987788,,,negar,2 - with skip,"60:40, 57:43","2.0s, 1.5s",2023-07-18_18h50.44.716,Rewa's Exp,2023.1.2,59.9154712533991,
Countdown_2s.mp4,green,red,left,Countdown_2s.jpg,6,0,6,0,0,0,0,3,,,,,0,0,0,0,0,0,0,0,,,,,,,,711.3635967000009,712.9440818000003,1.5804850999993505,left,1,None,,35,60:40,1,1.5618611999980203,,,,,,,,,,,,,,,negar,2 - with skip,"60:40, 57:43","2.0s, 1.5s",2023-07-18_18h50.44.716,Rewa's Exp,2023.1.2,59.9154712533991,
Countdown_1.5s.mp4,green,red,left,Countdown_1.5s.jpg,6,0,6,0,0,1,1,2,,,,,0,0,0,0,0,0,0,0,,,,,,,,716.8455501000008,718.0105934000003,1.1650432999995246,left,1,None,,36,60:40,1,1.1356477999997878,,,,,,,,,,,,,,,negar,2 - with skip,"60:40, 57:43","2.0s, 1.5s",2023-07-18_18h50.44.716,Rewa's Exp,2023.1.2,59.9154712533991,
Countdown_2s.mp4,red,green,right,Countdown_2s.jpg,6,0,6,0,0,2,2,1,,,,,0,0,0,0,0,0,0,0,,,,,,,,721.9620080000004,723.0940036000011,1.1319956000006641,right,1,None,,37,60:40,1,1.10001789999842,,,,,,,,,,,,,,,negar,2 - with skip,"60:40, 57:43","2.0s, 1.5s",2023-07-18_18h50.44.716,Rewa's Exp,2023.1.2,59.9154712533991,
Countdown_1.5s.mp4,red,green,right,Countdown_1.5s.jpg,6,0,6,0,0,3,3,0,,,,,0,0,0,0,0,0,0,0,,,,,,,,727.0464205000007,728.1440044999999,1.0975839999991877,right,1,None,,38,60:40,1,1.071552099998371,,,,,,,,,,,,,,,negar,2 - with skip,"60:40, 57:43","2.0s, 1.5s",2023-07-18_18h50.44.716,Rewa's Exp,2023.1.2,59.9154712533991,
Countdown_2s.mp4,green,red,left,Countdown_2s.jpg,6,0,6,0,1,0,4,3,,,,,0,0,0,0,0,0,0,0,,,,,,,,732.0497532000009,733.2105852000004,1.1608319999995729,left,1,None,,39,60:40,1,1.131309999998848,,,,,,,,,,,,,,,negar,2 - with skip,"60:40, 57:43","2.0s, 1.5s",2023-07-18_18h50.44.716,Rewa's Exp,2023.1.2,59.9154712533991,
Countdown_1.5s.mp4,green,red,left,Countdown_1.5s.jpg,6,0,6,0,1,1,5,2,,,,,0,0,0,0,0,0,0,0,,,,,,,,737.1335491999998,738.1773520999996,1.0438028999997186,left,1,None,,40,60:40,1,1.0240122999985033,,,,,,,,,,,,,,,negar,2 - with skip,"60:40, 57:43","2.0s, 1.5s",2023-07-18_18h50.44.716,Rewa's Exp,2023.1.2,59.9154712533991,
Countdown_2s.mp4,red,green,right,Countdown_2s.jpg,6,0,6,0,1,2,6,1,,,,,0,0,0,0,0,0,0,0,,,,,,,,742.0945145000005,743.1606272999998,1.066112799999246,right,1,None,,41,60:40,1,1.0382817999980034,,,,,,,,,,,,,,,negar,2 - with skip,"60:40, 57:43","2.0s, 1.5s",2023-07-18_18h50.44.716,Rewa's Exp,2023.1.2,59.9154712533991,
Countdown_1.5s.mp4,red,green,right,Countdown_1.5s.jpg,6,0,6,0,1,3,7,0,,,,,0,0,0,0,0,0,0,0,,,,,,,,747.0608874999998,748.1774631999997,1.1165756999998848,right,1,None,,42,60:40,1,1.0967026999987866,,,,,,,,,,,,,,,negar,2 - with skip,"60:40, 57:43","2.0s, 1.5s",2023-07-18_18h50.44.716,Rewa's Exp,2023.1.2,59.9154712533991,
Countdown_1.5s.mp4,red,green,right,Countdown_1.5s.jpg,6,0,6,0,,,,,0,0,0,0,0,0,0,0,0,0,0,0,,,,,,,,752.1564166000007,753.1110969000001,0.9546802999993815,,,,,42,57:43,0,,758.3363633999998,None,0,,space,0.9219497999984014,,,,,,,,,negar,2 - with skip,"60:40, 57:43","2.0s, 1.5s",2023-07-18_18h50.44.716,Rewa's Exp,2023.1.2,59.9154712533991,
Countdown_1.5s.mp4,green,red,left,Countdown_1.5s.jpg,6,0,6,0,,,,,0,1,1,2,0,0,0,0,0,0,0,0,,,,,,,,757.0746001000007,758.2107381000005,1.1361379999998462,,,,,43,57:43,1,,763.2549592000014,left,1,1.1154585999993287,None,,,,,,,,,,negar,2 - with skip,"60:40, 57:43","2.0s, 1.5s",2023-07-18_18h50.44.716,Rewa's Exp,2023.1.2,59.9154712533991,
Countdown_2s.mp4,green,red,left,Countdown_2s.jpg,6,0,6,0,,,,,0,2,2,3,0,0,0,0,0,0,0,0,,,,,,,,762.1252003999998,763.3771137000003,1.251913300000524,,,,,44,57:43,1,,768.3055769000002,left,1,1.2328645999987202,None,,,,,,,,,,negar,2 - with skip,"60:40, 57:43","2.0s, 1.5s",2023-07-18_18h50.44.716,Rewa's Exp,2023.1.2,59.9154712533991,
Countdown_2s.mp4,red,green,right,Countdown_2s.jpg,6,0,6,0,,,,,0,3,3,1,0,0,0,0,0,0,0,0,,,,,,,,767.2807764999998,768.5944443999997,1.3136678999999276,,,,,45,57:43,1,,773.4612382000014,right,1,1.292779799998243,None,,,,,,,,,,negar,2 - with skip,"60:40, 57:43","2.0s, 1.5s",2023-07-18_18h50.44.716,Rewa's Exp,2023.1.2,59.9154712533991,
Countdown_2s.mp4,red,green,right,Countdown_2s.jpg,6,0,6,0,,,,,1,0,4,1,0,0,0,0,0,0,0,0,,,,,,,,772.5139223999995,774.0939218000003,1.5799994000008155,,,,,46,57:43,1,,778.6942825000006,right,1,1.5476605999992898,None,,,,,,,,,,negar,2 - with skip,"60:40, 57:43","2.0s, 1.5s",2023-07-18_18h50.44.716,Rewa's Exp,2023.1.2,59.9154712533991,
Countdown_1.5s.mp4,green,red,left,Countdown_1.5s.jpg,6,0,6,0,,,,,1,1,5,2,0,0,0,0,0,0,0,0,,,,,,,,777.9957957000006,779.0442893,1.0484935999993468,,,,,46,57:43,0,,784.1761621000005,None,0,,space,1.0174433999982284,,,,,,,,,negar,2 - with skip,"60:40, 57:43","2.0s, 1.5s",2023-07-18_18h50.44.716,Rewa's Exp,2023.1.2,59.9154712533991,
Countdown_2s.mp4,green,red,left,Countdown_2s.jpg,6,0,6,0,,,,,1,2,6,3,0,0,0,0,0,0,0,0,,,,,,,,782.9918508999999,784.5441360999994,1.55228519999946,,,,,47,57:43,1,,789.1721462000005,left,1,1.5344758999981423,None,,,,,,,,,,negar,2 - with skip,"60:40, 57:43","2.0s, 1.5s",2023-07-18_18h50.44.716,Rewa's Exp,2023.1.2,59.9154712533991,
Countdown_1.5s.mp4,red,green,right,Countdown_1.5s.jpg,6,0,6,0,,,,,1,3,7,0,0,0,0,0,0,0,0,0,,,,,,,,788.4871729999995,789.6440659,1.1568929000004573,,,,,45,57:43,-2,,794.6675891000014,left,0,1.1260556999986875,None,,,,,,,,,,negar,2 - with skip,"60:40, 57:43","2.0s, 1.5s",2023-07-18_18h50.44.716,Rewa's Exp,2023.1.2,59.9154712533991,
Countdown_2s.mp4,red,green,right,Countdown_2s.jpg,6,0,6,0,,,,,,,,,0,0,0,1,0,0,0,1,,,,,,,,,,,,,,,,,,,,,,,,,796.9874743,796.9874743,796.9874743,796.9874743,space,5.582329899998513,,,negar,2 - with skip,"60:40, 57:43","2.0s, 1.5s",2023-07-18_18h50.44.716,Rewa's Exp,2023.1.2,59.9154712533991,
Countdown_1.5s.mp4,green,red,left,Countdown_1.5s.jpg,7,0,7,0,0,0,0,2,,,,,0,0,0,1,0,0,0,1,,,,,,,,799.1905688999996,800.4106750999999,1.220106200000373,None,0,space,1.1902875999985554,45,60:40,0,,,,,,,,,,,,,,,,negar,2 - with skip,"60:40, 57:43","2.0s, 1.5s",2023-07-18_18h50.44.716,Rewa's Exp,2023.1.2,59.9154712533991,
Countdown_2s.mp4,red,green,right,Countdown_2s.jpg,7,0,7,0,0,1,1,1,,,,,0,0,0,1,0,0,0,1,,,,,,,,804.3217342000007,805.4273904000001,1.10565619999943,right,1,None,,46,60:40,1,1.0847106999990501,,,,,,,,,,,,,,,negar,2 - with skip,"60:40, 57:43","2.0s, 1.5s",2023-07-18_18h50.44.716,Rewa's Exp,2023.1.2,59.9154712533991,
Countdown_2s.mp4,green,red,left,Countdown_2s.jpg,7,0,7,0,0,2,2,3,,,,,0,0,0,1,0,0,0,1,,,,,,,,809.3928372000009,811.2272714999999,1.834434299998975,left,1,None,,47,60:40,1,1.8035806999978377,,,,,,,,,,,,,,,negar,2 - with skip,"60:40, 57:43","2.0s, 1.5s",2023-07-18_18h50.44.716,Rewa's Exp,2023.1.2,59.9154712533991,
Countdown_1.5s.mp4,red,green,right,Countdown_1.5s.jpg,7,0,7,0,0,3,3,0,,,,,0,0,0,1,0,0,0,1,,,,,,,,815.1962227999993,816.3609625000008,1.164739700001519,left,0,None,,45,60:40,-2,1.136178499999005,,,,,,,,,,,,,,,negar,2 - with skip,"60:40, 57:43","2.0s, 1.5s",2023-07-18_18h50.44.716,Rewa's Exp,2023.1.2,59.9154712533991,
Countdown_2s.mp4,red,green,right,Countdown_2s.jpg,7,0,7,0,1,0,4,1,,,,,0,0,0,1,0,0,0,1,,,,,,,,820.2853396999999,821.594262300001,1.3089226000010967,right,1,None,,46,60:40,1,1.2888499999971827,,,,,,,,,,,,,,,negar,2 - with skip,"60:40, 57:43","2.0s, 1.5s",2023-07-18_18h50.44.716,Rewa's Exp,2023.1.2,59.9154712533991,
Countdown_1.5s.mp4,red,green,right,Countdown_1.5s.jpg,7,0,7,0,1,1,5,0,,,,,0,0,0,1,0,0,0,1,,,,,,,,825.5068845000005,826.6607808000008,1.1538963000002695,right,1,None,,47,60:40,1,1.1214429999981803,,,,,,,,,,,,,,,negar,2 - with skip,"60:40, 57:43","2.0s, 1.5s",2023-07-18_18h50.44.716,Rewa's Exp,2023.1.2,59.9154712533991,
Countdown_2s.mp4,green,red,left,Countdown_2s.jpg,7,0,7,0,1,2,6,3,,,,,0,0,0,1,0,0,0,1,,,,,,,,830.5913166000009,832.0107184999997,1.4194018999987748,left,1,None,,48,60:40,1,1.3981506999989506,,,,,,,,,,,,,,,negar,2 - with skip,"60:40, 57:43","2.0s, 1.5s",2023-07-18_18h50.44.716,Rewa's Exp,2023.1.2,59.9154712533991,
Countdown_1.5s.mp4,green,red,left,Countdown_1.5s.jpg,7,0,7,0,1,3,7,2,,,,,0,0,0,1,0,0,0,1,,,,,,,,835.9168573000006,837.0273971999995,1.110539899998912,None,0,space,1.078960899998492,48,60:40,0,,,,,,,,,,,,,,,,negar,2 - with skip,"60:40, 57:43","2.0s, 1.5s",2023-07-18_18h50.44.716,Rewa's Exp,2023.1.2,59.9154712533991,
Countdown_2s.mp4,red,green,right,Countdown_2s.jpg,7,0,7,0,,,,,0,0,0,1,0,0,0,1,0,0,0,1,,,,,,,,840.9711702999994,842.2271270000001,1.2559567000007519,,,,,49,57:43,1,,847.1516618000005,right,1,1.2331940999993094,None,,,,,,,,,,negar,2 - with skip,"60:40, 57:43","2.0s, 1.5s",2023-07-18_18h50.44.716,Rewa's Exp,2023.1.2,59.9154712533991,
Countdown_2s.mp4,green,red,left,Countdown_2s.jpg,7,0,7,0,,,,,0,1,1,3,0,0,0,1,0,0,0,1,,,,,,,,846.126108800001,847.0783506999996,0.9522418999986257,,,,,50,57:43,1,,852.3065201999998,left,1,0.926200299998527,None,,,,,,,,,,negar,2 - with skip,"60:40, 57:43","2.0s, 1.5s",2023-07-18_18h50.44.716,Rewa's Exp,2023.1.2,59.9154712533991,
Countdown_1.5s.mp4,green,red,left,Countdown_1.5s.jpg,7,0,7,0,,,,,0,2,2,2,0,0,0,1,0,0,0,1,,,,,,,,850.9967390000002,852.1440777000007,1.147338700000546,,,,,51,57:43,1,,857.1771867000007,left,1,1.1203668999987713,None,,,,,,,,,,negar,2 - with skip,"60:40, 57:43","2.0s, 1.5s",2023-07-18_18h50.44.716,Rewa's Exp,2023.1.2,59.9154712533991,
Countdown_1.5s.mp4,red,green,right,Countdown_1.5s.jpg,7,0,7,0,,,,,0,3,3,0,0,0,0,1,0,0,0,1,,,,,,,,856.0743113999997,857.2939014000003,1.2195900000006077,,,,,52,57:43,1,,862.2547137000001,right,1,1.1874737999987701,None,,,,,,,,,,negar,2 - with skip,"60:40, 57:43","2.0s, 1.5s",2023-07-18_18h50.44.716,Rewa's Exp,2023.1.2,59.9154712533991,
Countdown_1.5s.mp4,red,green,right,Countdown_1.5s.jpg,7,0,7,0,,,,,1,0,4,0,0,0,0,1,0,0,0,1,,,,,,,,861.1939722000006,862.2106500999998,1.0166778999991948,,,,,53,57:43,1,,867.3744056000014,right,1,0.9864729999990232,None,,,,,,,,,,negar,2 - with skip,"60:40, 57:43","2.0s, 1.5s",2023-07-18_18h50.44.716,Rewa's Exp,2023.1.2,59.9154712533991,
Countdown_2s.mp4,green,red,left,Countdown_2s.jpg,7,0,7,0,,,,,1,1,5,3,0,0,0,1,0,0,0,1,,,,,,,,866.1250739000006,867.6273786000002,1.502304699999513,,,,,54,57:43,1,,872.3054683999999,left,1,1.4717249999994237,None,,,,,,,,,,negar,2 - with skip,"60:40, 57:43","2.0s, 1.5s",2023-07-18_18h50.44.716,Rewa's Exp,2023.1.2,59.9154712533991,
Countdown_2s.mp4,red,green,right,Countdown_2s.jpg,7,0,7,0,,,,,1,2,6,1,0,0,0,1,0,0,0,1,,,,,,,,871.5262564999994,873.2778216000006,1.751565100001244,,,,,55,57:43,1,,877.7066468000012,right,1,1.734153099998366,None,,,,,,,,,,negar,2 - with skip,"60:40, 57:43","2.0s, 1.5s",2023-07-18_18h50.44.716,Rewa's Exp,2023.1.2,59.9154712533991,
Countdown_1.5s.mp4,green,red,left,Countdown_1.5s.jpg,7,0,7,0,,,,,1,3,7,2,0,0,0,1,0,0,0,1,,,,,,,,877.2084539000007,878.4940465,1.2855925999992905,,,,,56,57:43,1,,883.3889109000011,left,1,1.2683142999976553,None,,,,,,,,,,negar,2 - with skip,"60:40, 57:43","2.0s, 1.5s",2023-07-18_18h50.44.716,Rewa's Exp,2023.1.2,59.9154712533991,
Countdown_2s.mp4,red,green,right,Countdown_2s.jpg,7,0,7,0,,,,,,,,,0,0,0,2,0,0,0,1,,,,,,,,,,,,,,,,,,,,,,,,,885.8408092999998,885.8408092999998,885.8408092999998,885.8408092999998,space,31.60906469999827,,,negar,2 - with skip,"60:40, 57:43","2.0s, 1.5s",2023-07-18_18h50.44.716,Rewa's Exp,2023.1.2,59.9154712533991,
Countdown_2s.mp4,red,green,right,Countdown_2s.jpg,8,0,8,0,0,0,0,1,,,,,0,0,0,2,0,0,0,1,,,,,,,,914.0957646999996,915.6604298000002,1.5646651000006386,right,1,None,,57,60:40,1,1.5324019999989105,,,,,,,,,,,,,,,negar,2 - with skip,"60:40, 57:43","2.0s, 1.5s",2023-07-18_18h50.44.716,Rewa's Exp,2023.1.2,59.9154712533991,
Countdown_2s.mp4,green,red,left,Countdown_2s.jpg,8,0,8,0,0,1,1,3,,,,,0,0,0,2,0,0,0,1,,,,,,,,919.5633075999995,920.8105113000001,1.2472037000006821,left,1,None,,58,60:40,1,1.2173141999974177,,,,,,,,,,,,,,,negar,2 - with skip,"60:40, 57:43","2.0s, 1.5s",2023-07-18_18h50.44.716,Rewa's Exp,2023.1.2,59.9154712533991,
Countdown_1.5s.mp4,green,red,left,Countdown_1.5s.jpg,8,0,8,0,0,2,2,2,,,,,0,0,0,2,0,0,0,1,,,,,,,,924.7334953000009,925.910597600001,1.177102300000115,None,0,space,1.143954199997097,58,60:40,0,,,,,,,,,,,,,,,,negar,2 - with skip,"60:40, 57:43","2.0s, 1.5s",2023-07-18_18h50.44.716,Rewa's Exp,2023.1.2,59.9154712533991,
Countdown_1.5s.mp4,red,green,right,Countdown_1.5s.jpg,8,0,8,0,0,3,3,0,,,,,0,0,0,2,0,0,0,1,,,,,,,,929.8105589000006,931.0270612000004,1.2165022999997746,right,1,None,,59,60:40,1,1.1858599999977741,,,,,,,,,,,,,,,negar,2 - with skip,"60:40, 57:43","2.0s, 1.5s",2023-07-18_18h50.44.716,Rewa's Exp,2023.1.2,59.9154712533991,
Countdown_1.5s.mp4,green,red,left,Countdown_1.5s.jpg,8,0,8,0,1,0,4,2,,,,,0,0,0,2,0,0,0,1,,,,,,,,934.9263953999998,935.9772463999998,1.050850999999966,None,0,space,1.0308825999982218,59,60:40,0,,,,,,,,,,,,,,,,negar,2 - with skip,"60:40, 57:43","2.0s, 1.5s",2023-07-18_18h50.44.716,Rewa's Exp,2023.1.2,59.9154712533991,
Countdown_2s.mp4,green,red,left,Countdown_2s.jpg,8,0,8,0,1,1,5,3,,,,,0,0,0,2,0,0,0,1,,,,,,,,939.9305089000009,941.6938356999999,1.7633267999990494,left,1,None,,60,60:40,1,1.7305451999982324,,,,,,,,,,,,,,,negar,2 - with skip,"60:40, 57:43","2.0s, 1.5s",2023-07-18_18h50.44.716,Rewa's Exp,2023.1.2,59.9154712533991,
Countdown_1.5s.mp4,red,green,right,Countdown_1.5s.jpg,8,0,8,0,1,2,6,0,,,,,0,0,0,2,0,0,0,1,,,,,,,,945.6052577999999,947.0105217,1.4052639000001363,right,1,None,,61,60:40,1,1.3832349999975122,,,,,,,,,,,,,,,negar,2 - with skip,"60:40, 57:43","2.0s, 1.5s",2023-07-18_18h50.44.716,Rewa's Exp,2023.1.2,59.9154712533991,
Countdown_2s.mp4,red,green,right,Countdown_2s.jpg,8,0,8,0,1,3,7,1,,,,,0,0,0,2,0,0,0,1,,,,,,,,950.9153103000008,952.4605596000001,1.545249299999341,left,0,None,,59,60:40,-2,1.5224266999975953,,,,,,,,,,,,,,,negar,2 - with skip,"60:40, 57:43","2.0s, 1.5s",2023-07-18_18h50.44.716,Rewa's Exp,2023.1.2,59.9154712533991,
Countdown_2s.mp4,green,red,left,Countdown_2s.jpg,8,0,8,0,,,,,0,0,0,3,0,0,0,2,0,0,0,1,,,,,,,,956.3539431000008,958.0606052000003,1.7066620999994484,,,,,60,57:43,1,,962.5342325000001,left,1,1.6823952999984613,None,,,,,,,,,,negar,2 - with skip,"60:40, 57:43","2.0s, 1.5s",2023-07-18_18h50.44.716,Rewa's Exp,2023.1.2,59.9154712533991,
Countdown_1.5s.mp4,red,green,right,Countdown_1.5s.jpg,8,0,8,0,,,,,0,1,1,0,0,0,0,2,0,0,0,1,,,,,,,,961.9946670000008,963.2771109000005,1.2824438999996346,,,,,61,57:43,1,,968.1750537000007,right,1,1.2508002999984456,None,,,,,,,,,,negar,2 - with skip,"60:40, 57:43","2.0s, 1.5s",2023-07-18_18h50.44.716,Rewa's Exp,2023.1.2,59.9154712533991,
Countdown_1.5s.mp4,green,red,left,Countdown_1.5s.jpg,8,0,8,0,,,,,0,2,2,2,0,0,0,2,0,0,0,1,,,,,,,,967.1961090000004,968.4937867999997,1.297677799999292,,,,,62,57:43,1,,973.3764977999999,left,1,1.2809406999986095,None,,,,,,,,,,negar,2 - with skip,"60:40, 57:43","2.0s, 1.5s",2023-07-18_18h50.44.716,Rewa's Exp,2023.1.2,59.9154712533991,
Countdown_2s.mp4,red,green,right,Countdown_2s.jpg,8,0,8,0,,,,,0,3,3,1,0,0,0,2,0,0,0,1,,,,,,,,972.4073389000005,974.1439799,1.7366409999995085,,,,,63,57:43,1,,978.5877636000005,right,1,1.7186131999969803,None,,,,,,,,,,negar,2 - with skip,"60:40, 57:43","2.0s, 1.5s",2023-07-18_18h50.44.716,Rewa's Exp,2023.1.2,59.9154712533991,
Countdown_2s.mp4,green,red,left,Countdown_2s.jpg,8,0,8,0,,,,,1,0,4,3,0,0,0,2,0,0,0,1,,,,,,,,978.0440572999996,979.8938799999996,1.8498227000000043,,,,,64,57:43,1,,984.2244336000003,left,1,1.8240584999985003,None,,,,,,,,,,negar,2 - with skip,"60:40, 57:43","2.0s, 1.5s",2023-07-18_18h50.44.716,Rewa's Exp,2023.1.2,59.9154712533991,
Countdown_1.5s.mp4,green,red,left,Countdown_1.5s.jpg,8,0,8,0,,,,,1,1,5,2,0,0,0,2,0,0,0,1,,,,,,,,983.8455030999994,985.1270552000005,1.2815521000011358,,,,,64,57:43,0,,990.0258854000003,None,0,,space,1.2561030999986542,,,,,,,,,negar,2 - with skip,"60:40, 57:43","2.0s, 1.5s",2023-07-18_18h50.44.716,Rewa's Exp,2023.1.2,59.9154712533991,
Countdown_1.5s.mp4,red,green,right,Countdown_1.5s.jpg,8,0,8,0,,,,,1,2,6,0,0,0,0,2,0,0,0,1,,,,,,,,989.0172332000002,990.2438796000006,1.2266464000003907,,,,,65,57:43,1,,995.1976071000008,right,1,1.203267999997479,None,,,,,,,,,,negar,2 - with skip,"60:40, 57:43","2.0s, 1.5s",2023-07-18_18h50.44.716,Rewa's Exp,2023.1.2,59.9154712533991,
Countdown_2s.mp4,red,green,right,Countdown_2s.jpg,8,0,8,0,,,,,1,3,7,1,0,0,0,2,0,0,0,1,,,,,,,,994.180941300001,996.1604188000001,1.9794774999991205,,,,,65,57:43,0,,1000.3612334000009,None,0,,space,1.9515705999983766,,,,,,,,,negar,2 - with skip,"60:40, 57:43","2.0s, 1.5s",2023-07-18_18h50.44.716,Rewa's Exp,2023.1.2,59.9154712533991,
Countdown_2s.mp4,red,green,right,Countdown_2s.jpg,8,0,8,0,,,,,,,,,0,0,0,0,0,0,0,1,,,,,,,,,,,,,,,,,,,,,,,,,1003.4897787000009,1003.4897787000009,1003.4897787000009,1003.4897787000009,space,2.230833399997209,,,negar,2 - with skip,"60:40, 57:43","2.0s, 1.5s",2023-07-18_18h50.44.716,Rewa's Exp,2023.1.2,59.9154712533991,
Countdown_1.5s.mp4,green,red,left,Countdown_1.5s.jpg,9,0,9,0,0,0,0,2,,,,,0,0,0,0,0,0,0,1,,,,,,,,1002.3581565000004,1003.5770461000011,1.2188896000006935,left,1,None,,66,60:40,1,1.1992229999978008,,,,,,,,,,,,,,,negar,2 - with skip,"60:40, 57:43","2.0s, 1.5s",2023-07-18_18h50.44.716,Rewa's Exp,2023.1.2,59.9154712533991,
Countdown_1.5s.mp4,red,green,right,Countdown_1.5s.jpg,9,0,9,0,0,1,1,0,,,,,0,0,0,0,0,0,0,1,,,,,,,,1007.4541336000002,1008.5936866000011,1.1395530000008876,right,1,None,,67,60:40,1,1.1183408999986568,,,,,,,,,,,,,,,negar,2 - with skip,"60:40, 57:43","2.0s, 1.5s",2023-07-18_18h50.44.716,Rewa's Exp,2023.1.2,59.9154712533991,
Countdown_2s.mp4,green,red,left,Countdown_2s.jpg,9,0,9,0,0,2,2,3,,,,,0,0,0,0,0,0,0,1,,,,,,,,1012.4815531000004,1013.9770571000008,1.4955040000004374,left,1,None,,68,60:40,1,1.4664187999987917,,,,,,,,,,,,,,,negar,2 - with skip,"60:40, 57:43","2.0s, 1.5s",2023-07-18_18h50.44.716,Rewa's Exp,2023.1.2,59.9154712533991,
Countdown_2s.mp4,red,green,right,Countdown_2s.jpg,9,0,9,0,0,3,3,1,,,,,0,0,0,0,0,0,0,1,,,,,,,,1017.8743529000003,1019.293791600001,1.4194387000006827,right,1,None,,69,60:40,1,1.3947754999990138,,,,,,,,,,,,,,,negar,2 - with skip,"60:40, 57:43","2.0s, 1.5s",2023-07-18_18h50.44.716,Rewa's Exp,2023.1.2,59.9154712533991,
Countdown_1.5s.mp4,red,green,right,Countdown_1.5s.jpg,9,0,9,0,1,0,4,0,,,,,0,0,0,0,0,0,0,1,,,,,,,,1023.1805215999993,1024.4769235000003,1.2964019000010012,right,1,None,,70,60:40,1,1.2637965999983862,,,,,,,,,,,,,,,negar,2 - with skip,"60:40, 57:43","2.0s, 1.5s",2023-07-18_18h50.44.716,Rewa's Exp,2023.1.2,59.9154712533991,
Countdown_1.5s.mp4,green,red,left,Countdown_1.5s.jpg,9,0,9,0,1,1,5,2,,,,,0,0,0,0,0,0,0,1,,,,,,,,1028.3967045000009,1029.5937654000008,1.1970608999999968,left,1,None,,71,60:40,1,1.1757897999996203,,,,,,,,,,,,,,,negar,2 - with skip,"60:40, 57:43","2.0s, 1.5s",2023-07-18_18h50.44.716,Rewa's Exp,2023.1.2,59.9154712533991,
Countdown_2s.mp4,green,red,left,Countdown_2s.jpg,9,0,9,0,1,2,6,3,,,,,0,0,0,0,0,0,0,1,,,,,,,,1033.5154710000006,1035.0936944999994,1.578223499998785,left,1,None,,72,60:40,1,1.5540495999975974,,,,,,,,,,,,,,,negar,2 - with skip,"60:40, 57:43","2.0s, 1.5s",2023-07-18_18h50.44.716,Rewa's Exp,2023.1.2,59.9154712533991,
Countdown_2s.mp4,red,green,right,Countdown_2s.jpg,9,0,9,0,1,3,7,1,,,,,0,0,0,0,0,0,0,1,,,,,,,,1039.002895900001,1040.660307600001,1.6574117000000115,right,1,None,,73,60:40,1,1.6259457999967708,,,,,,,,,,,,,,,negar,2 - with skip,"60:40, 57:43","2.0s, 1.5s",2023-07-18_18h50.44.716,Rewa's Exp,2023.1.2,59.9154712533991,
Countdown_1.5s.mp4,red,green,right,Countdown_1.5s.jpg,9,0,9,0,,,,,0,0,0,0,0,0,0,0,0,0,0,1,,,,,,,,1044.5841443000008,1045.8940951000004,1.3099507999995694,,,,,74,57:43,1,,1050.7645815000014,right,1,1.2852897999982815,None,,,,,,,,,,negar,2 - with skip,"60:40, 57:43","2.0s, 1.5s",2023-07-18_18h50.44.716,Rewa's Exp,2023.1.2,59.9154712533991,
Countdown_2s.mp4,green,red,left,Countdown_2s.jpg,9,0,9,0,,,,,0,1,1,3,0,0,0,0,0,0,0,1,,,,,,,,1049.8601168999994,1051.5437378000006,1.6836209000011877,,,,,75,57:43,1,,1056.0405375999999,left,1,1.6647293999976682,None,,,,,,,,,,negar,2 - with skip,"60:40, 57:43","2.0s, 1.5s",2023-07-18_18h50.44.716,Rewa's Exp,2023.1.2,59.9154712533991,
Countdown_1.5s.mp4,green,red,left,Countdown_1.5s.jpg,9,0,9,0,,,,,0,2,2,2,0,0,0,0,0,0,0,1,,,,,,,,1055.4572530999994,1056.7603913000003,1.3031382000008307,,,,,75,57:43,0,,1061.6376502000003,None,0,,space,1.2823801999984425,,,,,,,,,negar,2 - with skip,"60:40, 57:43","2.0s, 1.5s",2023-07-18_18h50.44.716,Rewa's Exp,2023.1.2,59.9154712533991,
Countdown_2s.mp4,red,green,right,Countdown_2s.jpg,9,0,9,0,,,,,0,3,3,1,0,0,0,0,0,0,0,1,,,,,,,,1060.693607000001,1062.1104766000008,1.4168695999996999,,,,,73,57:43,-2,,1066.8738988000005,left,0,1.399150399998689,None,,,,,,,,,,negar,2 - with skip,"60:40, 57:43","2.0s, 1.5s",2023-07-18_18h50.44.716,Rewa's Exp,2023.1.2,59.9154712533991,
Countdown_1.5s.mp4,green,red,left,Countdown_1.5s.jpg,9,0,9,0,,,,,1,0,4,2,0,0,0,0,0,0,0,1,,,,,,,,1066.0138361999998,1067.1772442000001,1.163408000000345,,,,,74,57:43,1,,1072.1942780000008,left,1,1.133949199998824,None,,,,,,,,,,negar,2 - with skip,"60:40, 57:43","2.0s, 1.5s",2023-07-18_18h50.44.716,Rewa's Exp,2023.1.2,59.9154712533991,
Countdown_2s.mp4,red,green,right,Countdown_2s.jpg,9,0,9,0,,,,,1,1,5,1,0,0,0,0,0,0,0,1,,,,,,,,1071.1037524000003,1072.8104481999999,1.7066957999995793,,,,,75,57:43,1,,1077.2831248000002,right,1,1.6861328999984835,None,,,,,,,,,,negar,2 - with skip,"60:40, 57:43","2.0s, 1.5s",2023-07-18_18h50.44.716,Rewa's Exp,2023.1.2,59.9154712533991,
Countdown_1.5s.mp4,red,green,right,Countdown_1.5s.jpg,9,0,9,0,,,,,1,2,6,0,0,0,0,0,0,0,0,1,,,,,,,,1076.7878708000007,1077.9603387000006,1.1724678999999014,,,,,75,57:43,0,,1082.9683118000012,None,0,,space,1.1436264999993,,,,,,,,,negar,2 - with skip,"60:40, 57:43","2.0s, 1.5s",2023-07-18_18h50.44.716,Rewa's Exp,2023.1.2,59.9154712533991,
Countdown_2s.mp4,green,red,left,Countdown_2s.jpg,9,0,9,0,,,,,1,3,7,3,0,0,0,0,0,0,0,1,,,,,,,,1081.9241447000004,1083.4935991000002,1.5694543999998132,,,,,76,57:43,1,,1088.1044282000003,left,1,1.53698059999806,None,,,,,,,,,,negar,2 - with skip,"60:40, 57:43","2.0s, 1.5s",2023-07-18_18h50.44.716,Rewa's Exp,2023.1.2,59.9154712533991,
Countdown_1.5s.mp4,red,green,right,Countdown_1.5s.jpg,9,0,9,0,,,,,,,,,0,0,0,0,0,0,0,0,,,,,,,,,,,,,,,,,,,,,,,,,1090.8139573000008,1090.8139573000008,1090.8139573000008,1090.8139573000008,space,1.6906148999969446,,,negar,2 - with skip,"60:40, 57:43","2.0s, 1.5s",2023-07-18_18h50.44.716,Rewa's Exp,2023.1.2,59.9154712533991,
Countdown_2s.mp4,green,red,left,Countdown_2s.jpg,10,0,10,0,0,0,0,3,,,,,0,0,0,0,0,0,0,0,,,,,,,,1089.147797900001,1090.2937106000008,1.1459126999998261,left,1,None,,77,60:40,1,1.1288533999977517,,,,,,,,,,,,,,,negar,2 - with skip,"60:40, 57:43","2.0s, 1.5s",2023-07-18_18h50.44.716,Rewa's Exp,2023.1.2,59.9154712533991,
Countdown_1.5s.mp4,green,red,left,Countdown_1.5s.jpg,10,0,10,0,0,1,1,2,,,,,0,0,0,0,0,0,0,0,,,,,,,,1094.2207400999996,1095.2112751999994,0.9905350999997609,left,1,None,,78,60:40,1,0.9681453999983205,,,,,,,,,,,,,,,negar,2 - with skip,"60:40, 57:43","2.0s, 1.5s",2023-07-18_18h50.44.716,Rewa's Exp,2023.1.2,59.9154712533991,
Countdown_1.5s.mp4,red,green,right,Countdown_1.5s.jpg,10,0,10,0,0,2,2,0,,,,,0,0,0,0,0,0,0,0,,,,,,,,1099.1832278000002,1100.2602955000002,1.0770677000000433,right,1,None,,79,60:40,1,1.0453019999986282,,,,,,,,,,,,,,,negar,2 - with skip,"60:40, 57:43","2.0s, 1.5s",2023-07-18_18h50.44.716,Rewa's Exp,2023.1.2,59.9154712533991,
Countdown_2s.mp4,red,green,right,Countdown_2s.jpg,10,0,10,0,0,3,3,1,,,,,0,0,0,0,0,0,0,0,,,,,,,,1104.1798782999995,1105.4269046000009,1.2470263000013802,right,1,None,,80,60:40,1,1.215909599997758,,,,,,,,,,,,,,,negar,2 - with skip,"60:40, 57:43","2.0s, 1.5s",2023-07-18_18h50.44.716,Rewa's Exp,2023.1.2,59.9154712533991,
Countdown_1.5s.mp4,red,green,right,Countdown_1.5s.jpg,10,0,10,0,1,0,4,0,,,,,0,0,0,0,0,0,0,0,,,,,,,,1109.3511433000003,1110.243786000001,0.8926427000005788,right,1,None,,81,60:40,1,0.8607417999992322,,,,,,,,,,,,,,,negar,2 - with skip,"60:40, 57:43","2.0s, 1.5s",2023-07-18_18h50.44.716,Rewa's Exp,2023.1.2,59.9154712533991,
Countdown_2s.mp4,red,green,right,Countdown_2s.jpg,10,0,10,0,1,1,5,1,,,,,0,0,0,0,0,0,0,0,,,,,,,,1114.1916898,1115.2435912,1.0519014000001334,right,1,None,,82,60:40,1,1.0293054999983724,,,,,,,,,,,,,,,negar,2 - with skip,"60:40, 57:43","2.0s, 1.5s",2023-07-18_18h50.44.716,Rewa's Exp,2023.1.2,59.9154712533991,
Countdown_1.5s.mp4,green,red,left,Countdown_1.5s.jpg,10,0,10,0,1,2,6,2,,,,,0,0,0,0,0,0,0,0,,,,,,,,1119.1807408999994,1120.3103102000005,1.1295693000010942,right,0,None,,80,60:40,-2,1.1121366999996098,,,,,,,,,,,,,,,negar,2 - with skip,"60:40, 57:43","2.0s, 1.5s",2023-07-18_18h50.44.716,Rewa's Exp,2023.1.2,59.9154712533991,
Countdown_2s.mp4,green,red,left,Countdown_2s.jpg,10,0,10,0,1,3,7,3,,,,,0,0,0,0,0,0,0,0,,,,,,,,1124.2547620000005,1125.7436914999998,1.488929499999358,left,1,None,,81,60:40,1,1.4618682000000263,,,,,,,,,,,,,,,negar,2 - with skip,"60:40, 57:43","2.0s, 1.5s",2023-07-18_18h50.44.716,Rewa's Exp,2023.1.2,59.9154712533991,
Countdown_2s.mp4,red,green,right,Countdown_2s.jpg,10,0,10,0,,,,,0,0,0,1,0,0,0,0,0,0,0,0,,,,,,,,1129.6756208999996,1131.1103987000006,1.4347778000010294,,,,,82,57:43,1,,1135.8559006000014,right,1,1.417666299998018,None,,,,,,,,,,negar,2 - with skip,"60:40, 57:43","2.0s, 1.5s",2023-07-18_18h50.44.716,Rewa's Exp,2023.1.2,59.9154712533991,
Countdown_1.5s.mp4,red,green,right,Countdown_1.5s.jpg,10,0,10,0,,,,,0,1,1,0,0,0,0,0,0,0,0,0,,,,,,,,1135.017566800001,1136.2936231000003,1.2760562999992544,,,,,80,57:43,-2,,1141.1980930000009,left,0,1.2518557999992481,None,,,,,,,,,,negar,2 - with skip,"60:40, 57:43","2.0s, 1.5s",2023-07-18_18h50.44.716,Rewa's Exp,2023.1.2,59.9154712533991,
Countdown_1.5s.mp4,green,red,left,Countdown_1.5s.jpg,10,0,10,0,,,,,0,2,2,2,0,0,0,0,0,0,0,0,,,,,,,,1140.254218600001,1141.4268630999995,1.1726444999985688,,,,,81,57:43,1,,1146.4346387000005,left,1,1.1413732999990316,None,,,,,,,,,,negar,2 - with skip,"60:40, 57:43","2.0s, 1.5s",2023-07-18_18h50.44.716,Rewa's Exp,2023.1.2,59.9154712533991,
Countdown_2s.mp4,green,red,left,Countdown_2s.jpg,10,0,10,0,,,,,0,3,3,3,0,0,0,0,0,0,0,0,,,,,,,,1145.359859100001,1147.0770551999994,1.7171960999985458,,,,,81,57:43,0,,1151.5403686000009,None,0,,space,1.684484599998541,,,,,,,,,negar,2 - with skip,"60:40, 57:43","2.0s, 1.5s",2023-07-18_18h50.44.716,Rewa's Exp,2023.1.2,59.9154712533991,
Countdown_2s.mp4,red,green,right,Countdown_2s.jpg,10,0,10,0,,,,,1,0,4,1,0,0,0,0,0,0,0,0,,,,,,,,1151.0443445,1152.4776870000005,1.4333425000004354,,,,,82,57:43,1,,1157.2247939000008,right,1,1.4083252999989782,None,,,,,,,,,,negar,2 - with skip,"60:40, 57:43","2.0s, 1.5s",2023-07-18_18h50.44.716,Rewa's Exp,2023.1.2,59.9154712533991,
Countdown_2s.mp4,green,red,left,Countdown_2s.jpg,10,0,10,0,,,,,1,1,5,3,0,0,0,0,0,0,0,0,,,,,,,,1156.4460228000007,1157.8775578000004,1.4315349999997125,,,,,83,57:43,1,,1162.6263443000007,left,1,1.4068014999993466,None,,,,,,,,,,negar,2 - with skip,"60:40, 57:43","2.0s, 1.5s",2023-07-18_18h50.44.716,Rewa's Exp,2023.1.2,59.9154712533991,
Countdown_1.5s.mp4,red,green,right,Countdown_1.5s.jpg,10,0,10,0,,,,,1,2,6,0,0,0,0,0,0,0,0,0,,,,,,,,1161.8048694000008,1163.0269270999997,1.2220576999989134,,,,,84,57:43,1,,1167.9853236,right,1,1.1995921999969141,None,,,,,,,,,,negar,2 - with skip,"60:40, 57:43","2.0s, 1.5s",2023-07-18_18h50.44.716,Rewa's Exp,2023.1.2,59.9154712533991,
Countdown_1.5s.mp4,green,red,left,Countdown_1.5s.jpg,10,0,10,0,,,,,1,3,7,2,0,0,0,0,0,0,0,0,,,,,,,,1166.9141768000009,1168.1442119000003,1.2300350999994407,,,,,85,57:43,1,,1173.0946368000004,left,1,1.2014484999981505,None,,,,,,,,,,negar,2 - with skip,"60:40, 57:43","2.0s, 1.5s",2023-07-18_18h50.44.716,Rewa's Exp,2023.1.2,59.9154712533991,
Countdown_1.5s.mp4,green,red,left,Countdown_1.5s.jpg,10,0,10,0,,,,,,,,,0,0,0,0,0,0,0,2,,,,,,,,,,,,,,,,,,,,,,,,,1175.5064116000012,1175.5064116000012,1175.5064116000012,1175.5064116000012,space,3.5110439999989467,,,negar,2 - with skip,"60:40, 57:43","2.0s, 1.5s",2023-07-18_18h50.44.716,Rewa's Exp,2023.1.2,59.9154712533991,
Countdown_2s.mp4,red,green,right,Countdown_2s.jpg,11,0,11,0,0,0,0,1,,,,,0,0,0,0,0,0,0,2,,,,,,,,1175.6145355000008,1176.7769926,1.1624570999993011,right,1,None,,86,60:40,1,1.1426613999974506,,,,,,,,,,,,,,,negar,2 - with skip,"60:40, 57:43","2.0s, 1.5s",2023-07-18_18h50.44.716,Rewa's Exp,2023.1.2,59.9154712533991,
Countdown_1.5s.mp4,red,green,right,Countdown_1.5s.jpg,11,0,11,0,0,1,1,0,,,,,0,0,0,0,0,0,0,2,,,,,,,,1180.692973700001,1181.6605287000002,0.9675549999992654,right,1,None,,87,60:40,1,0.9512501999979577,,,,,,,,,,,,,,,negar,2 - with skip,"60:40, 57:43","2.0s, 1.5s",2023-07-18_18h50.44.716,Rewa's Exp,2023.1.2,59.9154712533991,
Countdown_2s.mp4,green,red,left,Countdown_2s.jpg,11,0,11,0,0,2,2,3,,,,,0,0,0,0,0,0,0,2,,,,,,,,1185.581554100001,1187.1435923000008,1.5620381999997335,left,1,None,,88,60:40,1,1.5346174999976938,,,,,,,,,,,,,,,negar,2 - with skip,"60:40, 57:43","2.0s, 1.5s",2023-07-18_18h50.44.716,Rewa's Exp,2023.1.2,59.9154712533991,
Countdown_1.5s.mp4,green,red,left,Countdown_1.5s.jpg,11,0,11,0,0,3,3,2,,,,,0,0,0,0,0,0,0,2,,,,,,,,1191.0587484999996,1192.4104232999998,1.3516748000001826,left,1,None,,89,60:40,1,1.3210853999971732,,,,,,,,,,,,,,,negar,2 - with skip,"60:40, 57:43","2.0s, 1.5s",2023-07-18_18h50.44.716,Rewa's Exp,2023.1.2,59.9154712533991,
Countdown_2s.mp4,red,green,right,Countdown_2s.jpg,11,0,11,0,1,0,4,1,,,,,0,0,0,0,0,0,0,2,,,,,,,,1196.3801767000004,1197.7104335000004,1.3302567999999155,right,1,None,,90,60:40,1,1.3045301999973162,,,,,,,,,,,,,,,negar,2 - with skip,"60:40, 57:43","2.0s, 1.5s",2023-07-18_18h50.44.716,Rewa's Exp,2023.1.2,59.9154712533991,
Countdown_2s.mp4,green,red,left,Countdown_2s.jpg,11,0,11,0,1,1,5,3,,,,,0,0,0,0,0,0,0,2,,,,,,,,1201.6641414000005,1203.2435232000007,1.579381800000192,left,1,None,,91,60:40,1,1.548030399999334,,,,,,,,,,,,,,,negar,2 - with skip,"60:40, 57:43","2.0s, 1.5s",2023-07-18_18h50.44.716,Rewa's Exp,2023.1.2,59.9154712533991,
Countdown_1.5s.mp4,red,green,right,Countdown_1.5s.jpg,11,0,11,0,1,2,6,0,,,,,0,0,0,0,0,0,0,2,,,,,,,,1207.1263787999997,1208.377078900001,1.2507001000012679,right,1,None,,92,60:40,1,1.2210157999979856,,,,,,,,,,,,,,,negar,2 - with skip,"60:40, 57:43","2.0s, 1.5s",2023-07-18_18h50.44.716,Rewa's Exp,2023.1.2,59.9154712533991,
Countdown_1.5s.mp4,green,red,left,Countdown_1.5s.jpg,11,0,11,0,1,3,7,2,,,,,0,0,0,0,0,0,0,2,,,,,,,,1212.3242162999995,1213.6601964000001,1.3359801000005973,left,1,None,,93,60:40,1,1.3129364999986137,,,,,,,,,,,,,,,negar,2 - with skip,"60:40, 57:43","2.0s, 1.5s",2023-07-18_18h50.44.716,Rewa's Exp,2023.1.2,59.9154712533991,
Countdown_2s.mp4,green,red,left,Countdown_2s.jpg,11,0,11,0,,,,,0,0,0,3,0,0,0,0,0,0,0,2,,,,,,,,1217.590586800001,1219.2604004000004,1.669813599999543,,,,,93,57:43,0,,1223.7710039000012,None,0,,space,1.6367058999985602,,,,,,,,,negar,2 - with skip,"60:40, 57:43","2.0s, 1.5s",2023-07-18_18h50.44.716,Rewa's Exp,2023.1.2,59.9154712533991,
Countdown_2s.mp4,red,green,right,Countdown_2s.jpg,11,0,11,0,,,,,0,1,1,1,0,0,0,0,0,0,0,2,,,,,,,,1223.1752020999993,1224.776824300001,1.601622200001657,,,,,94,57:43,1,,1229.3556495000012,right,1,1.581737399998019,None,,,,,,,,,,negar,2 - with skip,"60:40, 57:43","2.0s, 1.5s",2023-07-18_18h50.44.716,Rewa's Exp,2023.1.2,59.9154712533991,
Countdown_1.5s.mp4,green,red,left,Countdown_1.5s.jpg,11,0,11,0,,,,,0,2,2,2,0,0,0,0,0,0,0,2,,,,,,,,1228.6924608000008,1229.776881400001,1.0844206000001577,,,,,95,57:43,1,,1234.8727787000007,left,1,1.055880599999,None,,,,,,,,,,negar,2 - with skip,"60:40, 57:43","2.0s, 1.5s",2023-07-18_18h50.44.716,Rewa's Exp,2023.1.2,59.9154712533991,
Countdown_1.5s.mp4,red,green,right,Countdown_1.5s.jpg,11,0,11,0,,,,,0,3,3,0,0,0,0,0,0,0,0,2,,,,,,,,1233.7004257000008,1234.676931,0.9765052999991894,,,,,95,57:43,0,,1239.8808648000013,None,0,,space,0.9591945999982272,,,,,,,,,negar,2 - with skip,"60:40, 57:43","2.0s, 1.5s",2023-07-18_18h50.44.716,Rewa's Exp,2023.1.2,59.9154712533991,
Countdown_2s.mp4,red,green,right,Countdown_2s.jpg,11,0,11,0,,,,,1,0,4,1,0,0,0,0,0,0,0,2,,,,,,,,1238.576810300001,1240.0934880999994,1.5166777999984333,,,,,96,57:43,1,,1244.7572513000014,right,1,1.5000427999984822,None,,,,,,,,,,negar,2 - with skip,"60:40, 57:43","2.0s, 1.5s",2023-07-18_18h50.44.716,Rewa's Exp,2023.1.2,59.9154712533991,
Countdown_2s.mp4,green,red,left,Countdown_2s.jpg,11,0,11,0,,,,,1,1,5,3,0,0,0,0,0,0,0,2,,,,,,,,1244.0155207000007,1245.4769591999993,1.4614384999986214,,,,,97,57:43,1,,1250.1958818000003,left,1,1.4295467999982066,None,,,,,,,,,,negar,2 - with skip,"60:40, 57:43","2.0s, 1.5s",2023-07-18_18h50.44.716,Rewa's Exp,2023.1.2,59.9154712533991,
Countdown_1.5s.mp4,green,red,left,Countdown_1.5s.jpg,11,0,11,0,,,,,1,2,6,2,0,0,0,0,0,0,0,2,,,,,,,,1249.3847002000002,1250.6938026999997,1.309102499999426,,,,,98,57:43,1,,1255.5650064000001,left,1,1.283181999997396,None,,,,,,,,,,negar,2 - with skip,"60:40, 57:43","2.0s, 1.5s",2023-07-18_18h50.44.716,Rewa's Exp,2023.1.2,59.9154712533991,
Countdown_1.5s.mp4,red,green,right,Countdown_1.5s.jpg,11,0,11,0,,,,,1,3,7,0,0,0,0,0,0,0,0,2,,,,,,,,1254.660545300001,1255.8105990000004,1.1500536999992619,,,,,96,57:43,-2,,1260.8408736000001,left,0,1.1275344999976369,None,,,,,,,,,,negar,2 - with skip,"60:40, 57:43","2.0s, 1.5s",2023-07-18_18h50.44.716,Rewa's Exp,2023.1.2,59.9154712533991,
Countdown_1.5s.mp4,red,green,right,Countdown_1.5s.jpg,11,0,11,0,,,,,,,,,0,0,0,1,0,0,0,0,,,,,,,,,,,,,,,,,,,,,,,,,1263.1782262000015,1263.1782262000015,1263.1782262000015,1263.1782262000015,space,10.358152899998458,,,negar,2 - with skip,"60:40, 57:43","2.0s, 1.5s",2023-07-18_18h50.44.716,Rewa's Exp,2023.1.2,59.9154712533991,
Countdown_1.5s.mp4,red,green,right,Countdown_1.5s.jpg,12,0,12,0,0,0,0,0,,,,,0,0,0,1,0,0,0,0,,,,,,,,1270.1564264000008,1271.5603814000006,1.403954999999769,left,0,None,,94,60:40,-2,1.3757383999982267,,,,,,,,,,,,,,,negar,2 - with skip,"60:40, 57:43","2.0s, 1.5s",2023-07-18_18h50.44.716,Rewa's Exp,2023.1.2,59.9154712533991,
Countdown_1.5s.mp4,green,red,left,Countdown_1.5s.jpg,12,0,12,0,0,1,1,2,,,,,0,0,0,1,0,0,0,0,,,,,,,,1275.4737059,1276.5103438999995,1.0366379999995843,left,1,None,,95,60:40,1,1.018697899999097,,,,,,,,,,,,,,,negar,2 - with skip,"60:40, 57:43","2.0s, 1.5s",2023-07-18_18h50.44.716,Rewa's Exp,2023.1.2,59.9154712533991,
Countdown_2s.mp4,green,red,left,Countdown_2s.jpg,12,0,12,0,0,2,2,3,,,,,0,0,0,1,0,0,0,0,,,,,,,,1280.493287700001,1281.8934590999997,1.400171399998726,right,0,None,,93,60:40,-2,1.3834591999984696,,,,,,,,,,,,,,,negar,2 - with skip,"60:40, 57:43","2.0s, 1.5s",2023-07-18_18h50.44.716,Rewa's Exp,2023.1.2,59.9154712533991,
Countdown_2s.mp4,red,green,right,Countdown_2s.jpg,12,0,12,0,0,3,3,1,,,,,0,0,0,1,0,0,0,0,,,,,,,,1285.8082691,1287.2934446,1.4851754999999685,right,1,None,,94,60:40,1,1.4598369999985152,,,,,,,,,,,,,,,negar,2 - with skip,"60:40, 57:43","2.0s, 1.5s",2023-07-18_18h50.44.716,Rewa's Exp,2023.1.2,59.9154712533991,
Countdown_1.5s.mp4,red,green,right,Countdown_1.5s.jpg,12,0,12,0,1,0,4,0,,,,,0,0,0,1,0,0,0,0,,,,,,,,1291.2008681000007,1292.3936541000003,1.1927859999996144,right,1,None,,95,60:40,1,1.1632707999997365,,,,,,,,,,,,,,,negar,2 - with skip,"60:40, 57:43","2.0s, 1.5s",2023-07-18_18h50.44.716,Rewa's Exp,2023.1.2,59.9154712533991,
Countdown_2s.mp4,green,red,left,Countdown_2s.jpg,12,0,12,0,1,1,5,3,,,,,0,0,0,1,0,0,0,0,,,,,,,,1296.3533109,1297.9440169000009,1.5907060000008642,right,0,None,,93,60:40,-2,1.5707610999979806,,,,,,,,,,,,,,,negar,2 - with skip,"60:40, 57:43","2.0s, 1.5s",2023-07-18_18h50.44.716,Rewa's Exp,2023.1.2,59.9154712533991,
Countdown_2s.mp4,red,green,right,Countdown_2s.jpg,12,0,12,0,1,2,6,1,,,,,0,0,0,1,0,0,0,0,,,,,,,,1301.9186695999997,1303.3771930000003,1.4585234000005585,None,0,space,1.4378197999976692,93,60:40,0,,,,,,,,,,,,,,,,negar,2 - with skip,"60:40, 57:43","2.0s, 1.5s",2023-07-18_18h50.44.716,Rewa's Exp,2023.1.2,59.9154712533991,
Countdown_1.5s.mp4,green,red,left,Countdown_1.5s.jpg,12,0,12,0,1,3,7,2,,,,,0,0,0,1,0,0,0,0,,,,,,,,1307.2996803000005,1308.310074000001,1.0103937000003498,left,1,None,,94,60:40,1,0.9842482999974891,,,,,,,,,,,,,,,negar,2 - with skip,"60:40, 57:43","2.0s, 1.5s",2023-07-18_18h50.44.716,Rewa's Exp,2023.1.2,59.9154712533991,
Countdown_2s.mp4,green,red,left,Countdown_2s.jpg,12,0,12,0,,,,,0,0,0,3,0,0,0,1,0,0,0,0,,,,,,,,1312.2554230999995,1314.0103751999995,1.7549521000000823,,,,,95,57:43,1,,1318.435791400001,left,1,1.7321351999980834,None,,,,,,,,,,negar,2 - with skip,"60:40, 57:43","2.0s, 1.5s",2023-07-18_18h50.44.716,Rewa's Exp,2023.1.2,59.9154712533991,
Countdown_1.5s.mp4,green,red,left,Countdown_1.5s.jpg,12,0,12,0,,,,,0,1,1,2,0,0,0,1,0,0,0,0,,,,,,,,1317.9725130000006,1319.2269342,1.2544211999993422,,,,,96,57:43,1,,1324.1529217000007,left,1,1.2318319999976666,None,,,,,,,,,,negar,2 - with skip,"60:40, 57:43","2.0s, 1.5s",2023-07-18_18h50.44.716,Rewa's Exp,2023.1.2,59.9154712533991,
Countdown_1.5s.mp4,red,green,right,Countdown_1.5s.jpg,12,0,12,0,,,,,0,2,2,0,0,0,0,1,0,0,0,0,,,,,,,,1323.1748246000006,1324.0103032999996,0.8354786999989301,,,,,97,57:43,1,,1329.3550945000006,right,1,0.8128372999999556,None,,,,,,,,,,negar,2 - with skip,"60:40, 57:43","2.0s, 1.5s",2023-07-18_18h50.44.716,Rewa's Exp,2023.1.2,59.9154712533991,
Countdown_2s.mp4,red,green,right,Countdown_2s.jpg,12,0,12,0,,,,,0,3,3,1,0,0,0,1,0,0,0,0,,,,,,,,1327.9721394999997,1329.1768107999997,1.2046712999999727,,,,,98,57:43,1,,1334.1525763000009,right,1,1.1834348999982467,None,,,,,,,,,,negar,2 - with skip,"60:40, 57:43","2.0s, 1.5s",2023-07-18_18h50.44.716,Rewa's Exp,2023.1.2,59.9154712533991,
Countdown_1.5s.mp4,green,red,left,Countdown_1.5s.jpg,12,0,12,0,,,,,1,0,4,2,0,0,0,1,0,0,0,0,,,,,,,,1333.0928206000008,1334.4436294000006,1.350808799999868,,,,,98,57:43,0,,1339.273154800001,None,0,,space,1.3261351999990438,,,,,,,,,negar,2 - with skip,"60:40, 57:43","2.0s, 1.5s",2023-07-18_18h50.44.716,Rewa's Exp,2023.1.2,59.9154712533991,
Countdown_2s.mp4,green,red,left,Countdown_2s.jpg,12,0,12,0,,,,,1,1,5,3,0,0,0,1,0,0,0,0,,,,,,,,1338.3668104999997,1339.8771992000002,1.510388700000476,,,,,99,57:43,1,,1344.5472154,left,1,1.4848252999981923,None,,,,,,,,,,negar,2 - with skip,"60:40, 57:43","2.0s, 1.5s",2023-07-18_18h50.44.716,Rewa's Exp,2023.1.2,59.9154712533991,
Countdown_1.5s.mp4,red,green,right,Countdown_1.5s.jpg,12,0,12,0,,,,,1,2,6,0,0,0,0,1,0,0,0,0,,,,,,,,1343.8606328999995,1345.2268000000004,1.3661671000008937,,,,,100,57:43,1,,1350.0411206000008,right,1,1.3347007999982452,None,,,,,,,,,,negar,2 - with skip,"60:40, 57:43","2.0s, 1.5s",2023-07-18_18h50.44.716,Rewa's Exp,2023.1.2,59.9154712533991,
Countdown_2s.mp4,red,green,right,Countdown_2s.jpg,12,0,12,0,,,,,1,3,7,1,0,0,0,1,0,0,0,0,,,,,,,,1349.1322875000005,1350.9270883000008,1.7948008000003028,,,,,101,57:43,1,,1355.3127034999998,right,1,1.7675148999987869,None,,,,,,,,,,negar,2 - with skip,"60:40, 57:43","2.0s, 1.5s",2023-07-18_18h50.44.716,Rewa's Exp,2023.1.2,59.9154712533991,
Countdown_1.5s.mp4,green,red,left,Countdown_1.5s.jpg,12,0,12,0,,,,,,,,,0,0,0,1,0,0,0,2,,,,,,,,,,,,,,,,,,,,,,,,,1358.2614188000007,1358.2614188000007,1358.2614188000007,1358.2614188000007,space,24.0189907999993,,,negar,2 - with skip,"60:40, 57:43","2.0s, 1.5s",2023-07-18_18h50.44.716,Rewa's Exp,2023.1.2,59.9154712533991,
Countdown_1.5s.mp4,red,green,right,Countdown_1.5s.jpg,13,0,13,0,0,0,0,0,,,,,0,0,0,1,0,0,0,2,,,,,,,,1378.8847208000007,1380.3765829999993,1.4918621999986499,None,0,None,,99,60:40,-2,,,,,,,,,,,,,,,,negar,2 - with skip,"60:40, 57:43","2.0s, 1.5s",2023-07-18_18h50.44.716,Rewa's Exp,2023.1.2,59.9154712533991,
Countdown_2s.mp4,red,green,right,Countdown_2s.jpg,13,0,13,0,0,1,1,1,,,,,0,0,0,1,0,0,0,2,,,,,,,,1384.3308027000003,1385.8434290000005,1.5126263000001927,right,1,None,,100,60:40,1,1.4807043999990128,,,,,,,,,,,,,,,negar,2 - with skip,"60:40, 57:43","2.0s, 1.5s",2023-07-18_18h50.44.716,Rewa's Exp,2023.1.2,59.9154712533991,
Countdown_1.5s.mp4,green,red,left,Countdown_1.5s.jpg,13,0,13,0,0,2,2,2,,,,,0,0,0,1,0,0,0,2,,,,,,,,1389.7576979000005,1390.9601899000008,1.2024920000003476,left,1,None,,101,60:40,1,1.1735206999983347,,,,,,,,,,,,,,,negar,2 - with skip,"60:40, 57:43","2.0s, 1.5s",2023-07-18_18h50.44.716,Rewa's Exp,2023.1.2,59.9154712533991,
Countdown_2s.mp4,green,red,left,Countdown_2s.jpg,13,0,13,0,0,3,3,3,,,,,0,0,0,1,0,0,0,2,,,,,,,,1394.8707818000003,1396.226853600001,1.356071800000791,left,1,None,,102,60:40,1,1.3327558999990288,,,,,,,,,,,,,,,negar,2 - with skip,"60:40, 57:43","2.0s, 1.5s",2023-07-18_18h50.44.716,Rewa's Exp,2023.1.2,59.9154712533991,
Countdown_1.5s.mp4,green,red,left,Countdown_1.5s.jpg,13,0,13,0,1,0,4,2,,,,,0,0,0,1,0,0,0,2,,,,,,,,1400.2032792999998,1401.293349200001,1.0900699000012537,left,1,None,,103,60:40,1,1.0727799999986019,,,,,,,,,,,,,,,negar,2 - with skip,"60:40, 57:43","2.0s, 1.5s",2023-07-18_18h50.44.716,Rewa's Exp,2023.1.2,59.9154712533991,
Countdown_2s.mp4,red,green,right,Countdown_2s.jpg,13,0,13,0,1,1,5,1,,,,,0,0,0,1,0,0,0,2,,,,,,,,1405.2027190000008,1406.9108345999994,1.708115599998564,right,1,None,,104,60:40,1,1.6889014999997016,,,,,,,,,,,,,,,negar,2 - with skip,"60:40, 57:43","2.0s, 1.5s",2023-07-18_18h50.44.716,Rewa's Exp,2023.1.2,59.9154712533991,
Countdown_2s.mp4,green,red,left,Countdown_2s.jpg,13,0,13,0,1,2,6,3,,,,,0,0,0,1,0,0,0,2,,,,,,,,1410.8432868,1412.5433035000005,1.7000167000005604,left,1,None,,105,60:40,1,1.672625599998355,,,,,,,,,,,,,,,negar,2 - with skip,"60:40, 57:43","2.0s, 1.5s",2023-07-18_18h50.44.716,Rewa's Exp,2023.1.2,59.9154712533991,
Countdown_1.5s.mp4,red,green,right,Countdown_1.5s.jpg,13,0,13,0,1,3,7,0,,,,,0,0,0,1,0,0,0,2,,,,,,,,1416.4412190000003,1417.6100129000006,1.1687939000003098,left,0,None,,103,60:40,-2,1.138631699997859,,,,,,,,,,,,,,,negar,2 - with skip,"60:40, 57:43","2.0s, 1.5s",2023-07-18_18h50.44.716,Rewa's Exp,2023.1.2,59.9154712533991,
Countdown_1.5s.mp4,red,green,right,Countdown_1.5s.jpg,13,0,13,0,,,,,0,0,0,0,0,0,0,1,0,0,0,2,,,,,,,,1421.5206491999998,1422.7767623,1.2561131000002206,,,,,103,57:43,0,,1427.7010688999999,None,0,,space,1.2261328999993566,,,,,,,,,negar,2 - with skip,"60:40, 57:43","2.0s, 1.5s",2023-07-18_18h50.44.716,Rewa's Exp,2023.1.2,59.9154712533991,
Countdown_1.5s.mp4,green,red,left,Countdown_1.5s.jpg,13,0,13,0,,,,,0,1,1,2,0,0,0,1,0,0,0,2,,,,,,,,1426.6854146000005,1427.7601548000002,1.0747401999997237,,,,,103,57:43,0,,1432.8657672000008,None,0,,space,1.0537877999995544,,,,,,,,,negar,2 - with skip,"60:40, 57:43","2.0s, 1.5s",2023-07-18_18h50.44.716,Rewa's Exp,2023.1.2,59.9154712533991,
Countdown_2s.mp4,green,red,left,Countdown_2s.jpg,13,0,13,0,,,,,0,2,2,3,0,0,0,1,0,0,0,2,,,,,,,,1431.719904200001,1433.1769050000003,1.4570007999991503,,,,,104,57:43,1,,1437.9003509000013,left,1,1.4367788999988989,None,,,,,,,,,,negar,2 - with skip,"60:40, 57:43","2.0s, 1.5s",2023-07-18_18h50.44.716,Rewa's Exp,2023.1.2,59.9154712533991,
Countdown_2s.mp4,red,green,right,Countdown_2s.jpg,13,0,13,0,,,,,0,3,3,1,0,0,0,1,0,0,0,2,,,,,,,,1437.0707048000004,1438.8433791999996,1.7726743999992323,,,,,102,57:43,-2,,1443.2511404000015,left,0,1.7403564999985974,None,,,,,,,,,,negar,2 - with skip,"60:40, 57:43","2.0s, 1.5s",2023-07-18_18h50.44.716,Rewa's Exp,2023.1.2,59.9154712533991,
Countdown_2s.mp4,red,green,right,Countdown_2s.jpg,13,0,13,0,,,,,1,0,4,1,0,0,0,1,0,0,0,2,,,,,,,,1442.7916621999993,1444.276678100001,1.4850159000015992,,,,,103,57:43,1,,1448.9721022000012,right,1,1.4527579999976297,None,,,,,,,,,,negar,2 - with skip,"60:40, 57:43","2.0s, 1.5s",2023-07-18_18h50.44.716,Rewa's Exp,2023.1.2,59.9154712533991,
Countdown_1.5s.mp4,green,red,left,Countdown_1.5s.jpg,13,0,13,0,,,,,1,1,5,2,0,0,0,1,0,0,0,2,,,,,,,,1448.2015066000004,1449.4600444999996,1.2585378999992827,,,,,104,57:43,1,,1454.3818366000014,left,1,1.2352787999989232,None,,,,,,,,,,negar,2 - with skip,"60:40, 57:43","2.0s, 1.5s",2023-07-18_18h50.44.716,Rewa's Exp,2023.1.2,59.9154712533991,
Countdown_2s.mp4,green,red,left,Countdown_2s.jpg,13,0,13,0,,,,,1,2,6,3,0,0,0,1,0,0,0,2,,,,,,,,1453.3598223999998,1454.8766238999997,1.5168014999999286,,,,,102,57:43,-2,,1459.5401806999998,right,0,1.484672699998555,None,,,,,,,,,,negar,2 - with skip,"60:40, 57:43","2.0s, 1.5s",2023-07-18_18h50.44.716,Rewa's Exp,2023.1.2,59.9154712533991,
Countdown_1.5s.mp4,red,green,right,Countdown_1.5s.jpg,13,0,13,0,,,,,1,3,7,0,0,0,0,1,0,0,0,2,,,,,,,,1458.8147343,1459.6776436,0.8629092999999557,,,,,103,57:43,1,,1464.9946197999998,right,1,0.8370489999979327,None,,,,,,,,,,negar,2 - with skip,"60:40, 57:43","2.0s, 1.5s",2023-07-18_18h50.44.716,Rewa's Exp,2023.1.2,59.9154712533991,
Countdown_2s.mp4,green,red,left,Countdown_2s.jpg,13,0,13,0,,,,,,,,,0,0,0,2,0,0,0,3,,,,,,,,,,,,,,,,,,,,,,,,,1467.028033300001,1467.028033300001,1467.028033300001,1467.028033300001,space,1.2208715999986453,,,negar,2 - with skip,"60:40, 57:43","2.0s, 1.5s",2023-07-18_18h50.44.716,Rewa's Exp,2023.1.2,59.9154712533991,
Countdown_1.5s.mp4,green,red,left,Countdown_1.5s.jpg,14,0,14,0,0,0,0,2,,,,,0,0,0,2,0,0,0,3,,,,,,,,1464.8891800000001,1466.1599523999994,1.2707723999992595,left,1,None,,104,60:40,1,1.2512771999990946,,,,,,,,,,,,,,,negar,2 - with skip,"60:40, 57:43","2.0s, 1.5s",2023-07-18_18h50.44.716,Rewa's Exp,2023.1.2,59.9154712533991,
Countdown_1.5s.mp4,red,green,right,Countdown_1.5s.jpg,14,0,14,0,0,1,1,0,,,,,0,0,0,2,0,0,0,3,,,,,,,,1470.0837520000005,1471.3935517999998,1.3097997999993822,right,1,None,,105,60:40,1,1.2801217999985965,,,,,,,,,,,,,,,negar,2 - with skip,"60:40, 57:43","2.0s, 1.5s",2023-07-18_18h50.44.716,Rewa's Exp,2023.1.2,59.9154712533991,
Countdown_2s.mp4,green,red,left,Countdown_2s.jpg,14,0,14,0,0,2,2,3,,,,,0,0,0,2,0,0,0,3,,,,,,,,1475.3249417999996,1476.409972200001,1.0850304000014148,left,1,None,,106,60:40,1,1.0621953999980178,,,,,,,,,,,,,,,negar,2 - with skip,"60:40, 57:43","2.0s, 1.5s",2023-07-18_18h50.44.716,Rewa's Exp,2023.1.2,59.9154712533991,
Countdown_2s.mp4,red,green,right,Countdown_2s.jpg,14,0,14,0,0,3,3,1,,,,,0,0,0,2,0,0,0,3,,,,,,,,1480.3233123999998,1481.660095000001,1.3367826000012428,right,1,None,,107,60:40,1,1.3049744999971153,,,,,,,,,,,,,,,negar,2 - with skip,"60:40, 57:43","2.0s, 1.5s",2023-07-18_18h50.44.716,Rewa's Exp,2023.1.2,59.9154712533991,
Countdown_1.5s.mp4,green,red,left,Countdown_1.5s.jpg,14,0,14,0,1,0,4,2,,,,,0,0,0,2,0,0,0,3,,,,,,,,1485.5675812999998,1486.910100000001,1.3425187000011647,left,1,None,,108,60:40,1,1.315898399998332,,,,,,,,,,,,,,,negar,2 - with skip,"60:40, 57:43","2.0s, 1.5s",2023-07-18_18h50.44.716,Rewa's Exp,2023.1.2,59.9154712533991,
Countdown_2s.mp4,green,red,left,Countdown_2s.jpg,14,0,14,0,1,1,5,3,,,,,0,0,0,2,0,0,0,3,,,,,,,,1490.8353454999997,1492.5932451999997,1.7578997000000527,left,1,None,,109,60:40,1,1.7275232999982109,,,,,,,,,,,,,,,negar,2 - with skip,"60:40, 57:43","2.0s, 1.5s",2023-07-18_18h50.44.716,Rewa's Exp,2023.1.2,59.9154712533991,
Countdown_2s.mp4,red,green,right,Countdown_2s.jpg,14,0,14,0,1,2,6,1,,,,,0,0,0,2,0,0,0,3,,,,,,,,1496.5164827000008,1498.0935971,1.5771143999991182,right,1,None,,110,60:40,1,1.5596560999983922,,,,,,,,,,,,,,,negar,2 - with skip,"60:40, 57:43","2.0s, 1.5s",2023-07-18_18h50.44.716,Rewa's Exp,2023.1.2,59.9154712533991,
Countdown_1.5s.mp4,red,green,right,Countdown_1.5s.jpg,14,0,14,0,1,3,7,0,,,,,0,0,0,2,0,0,0,3,,,,,,,,1501.9943435999994,1503.4766846000002,1.4823410000008153,right,1,None,,111,60:40,1,1.4502201999985118,,,,,,,,,,,,,,,negar,2 - with skip,"60:40, 57:43","2.0s, 1.5s",2023-07-18_18h50.44.716,Rewa's Exp,2023.1.2,59.9154712533991,
Countdown_1.5s.mp4,green,red,left,Countdown_1.5s.jpg,14,0,14,0,,,,,0,0,0,2,0,0,0,2,0,0,0,3,,,,,,,,1507.411282000001,1508.5935943000004,1.1823122999994666,,,,,112,57:43,1,,1513.5917020000015,left,1,1.1523048999988532,None,,,,,,,,,,negar,2 - with skip,"60:40, 57:43","2.0s, 1.5s",2023-07-18_18h50.44.716,Rewa's Exp,2023.1.2,59.9154712533991,
Countdown_2s.mp4,red,green,right,Countdown_2s.jpg,14,0,14,0,,,,,0,1,1,1,0,0,0,2,0,0,0,3,,,,,,,,1512.4930409999997,1514.1765935000003,1.6835525000005873,,,,,113,57:43,1,,1518.6734787000005,right,1,1.662498699997741,None,,,,,,,,,,negar,2 - with skip,"60:40, 57:43","2.0s, 1.5s",2023-07-18_18h50.44.716,Rewa's Exp,2023.1.2,59.9154712533991,
Countdown_2s.mp4,green,red,left,Countdown_2s.jpg,14,0,14,0,,,,,0,2,2,3,0,0,0,2,0,0,0,3,,,,,,,,1518.092071500001,1519.5099787,1.4179071999988082,,,,,114,57:43,1,,1524.2724642000012,left,1,1.3920955999983562,None,,,,,,,,,,negar,2 - with skip,"60:40, 57:43","2.0s, 1.5s",2023-07-18_18h50.44.716,Rewa's Exp,2023.1.2,59.9154712533991,
Countdown_1.5s.mp4,red,green,right,Countdown_1.5s.jpg,14,0,14,0,,,,,0,3,3,0,0,0,0,2,0,0,0,3,,,,,,,,1523.4101747999994,1524.6099278000002,1.1997530000007828,,,,,115,57:43,1,,1529.5905980000007,right,1,1.1774109999987559,None,,,,,,,,,,negar,2 - with skip,"60:40, 57:43","2.0s, 1.5s",2023-07-18_18h50.44.716,Rewa's Exp,2023.1.2,59.9154712533991,
Countdown_1.5s.mp4,green,red,left,Countdown_1.5s.jpg,14,0,14,0,,,,,1,0,4,2,0,0,0,2,0,0,0,3,,,,,,,,1528.520459700001,1529.7265836999995,1.2061239999984537,,,,,115,57:43,0,,1534.7007849000001,None,0,,space,1.178455799998119,,,,,,,,,negar,2 - with skip,"60:40, 57:43","2.0s, 1.5s",2023-07-18_18h50.44.716,Rewa's Exp,2023.1.2,59.9154712533991,
Countdown_1.5s.mp4,red,green,right,Countdown_1.5s.jpg,14,0,14,0,,,,,1,1,5,0,0,0,0,2,0,0,0,3,,,,,,,,1533.6428187000001,1534.8934843000006,1.2506656000005023,,,,,116,57:43,1,,1539.8232196999998,right,1,1.2258954999979323,None,,,,,,,,,,negar,2 - with skip,"60:40, 57:43","2.0s, 1.5s",2023-07-18_18h50.44.716,Rewa's Exp,2023.1.2,59.9154712533991,
Countdown_2s.mp4,green,red,left,Countdown_2s.jpg,14,0,14,0,,,,,1,2,6,3,0,0,0,2,0,0,0,3,,,,,,,,1538.840387100001,1539.9935060999996,1.1531189999986964,,,,,117,57:43,1,,1545.0207193000006,left,1,1.1243863999970927,None,,,,,,,,,,negar,2 - with skip,"60:40, 57:43","2.0s, 1.5s",2023-07-18_18h50.44.716,Rewa's Exp,2023.1.2,59.9154712533991,
Countdown_2s.mp4,red,green,right,Countdown_2s.jpg,14,0,14,0,,,,,1,3,7,1,0,0,0,2,0,0,0,3,,,,,,,,1543.9668198,1545.193277100001,1.2264573000011296,,,,,117,57:43,0,,1550.1471892999998,None,0,,space,1.1959102999990137,,,,,,,,,negar,2 - with skip,"60:40, 57:43","2.0s, 1.5s",2023-07-18_18h50.44.716,Rewa's Exp,2023.1.2,59.9154712533991,
Countdown_1.5s.mp4,red,green,right,Countdown_1.5s.jpg,14,0,14,0,,,,,,,,,0,0,0,2,0,0,0,0,,,,,,,,,,,,,,,,,,,,,,,,,1552.5117483000013,1552.5117483000013,1552.5117483000013,1552.5117483000013,space,3.6411728999992192,,,negar,2 - with skip,"60:40, 57:43","2.0s, 1.5s",2023-07-18_18h50.44.716,Rewa's Exp,2023.1.2,59.9154712533991,
,,,,,,,,,,,,,,,,,,,,,,,,,,,,,,,,,,,,,,,,,,,,,,,,,,,,,,,1556.1848097000002,1561.1845174999999,,,,,,,,,
