Countdown,color1,color2,correct,screenshot,trials.thisRepN,trials.thisTrialN,trials.thisN,trials.thisIndex,trials_6040.thisRepN,trials_6040.thisTrialN,trials_6040.thisN,trials_6040.thisIndex,trials_5743.thisRepN,trials_5743.thisTrialN,trials_5743.thisN,trials_5743.thisIndex,trials_5446.thisRepN,trials_5446.thisTrialN,trials_5446.thisN,trials_5446.thisIndex,trials_5149.thisRepN,trials_5149.thisTrialN,trials_5149.thisN,trials_5149.thisIndex,key_resp_4.started,key_resp_4.keys,key_resp_4.rt,key_resp_2.started,key_resp_2.keys,key_resp_2.rt,key_resp_3.keys,Left_3.started,Videoshowstart,Videoshowstop,VideoshowRT,response_2.keys,response_2.corr,key_skip_2.keys,total_score,Dot_ratio,current_score,response_2.rt,response_3.keys,response_3.corr,response_3.rt,key_skip_3.keys,text_2.started,text_5.started,key_resp.started,text_9.started,key_resp.keys,key_resp.rt,text_10.started,text_10.stopped,participant,Task,Dot Ratio,Deadline,date,expName,psychopyVersion,frameRate,
,,,,,,,,,,,,,,,,,,,,,,,,,96.20948520000093,space,9.118341699999291,,,,,,,,,,,,,,,,,,,,,,,,,,,,Rachel,1 - without skip,"57:43, 54:46","1.5s, 1.0s",2023-07-20_16h26.29.600,Rewa's Exp,2023.1.2,60.05883363350552,
,,,,,,,,,,,,,,,,,,,,,,,,,,,,105.35590740000043,space,3.035759099999268,,,,,,,,,,,,,,,,,,,,,,,,,Rachel,1 - without skip,"57:43, 54:46","1.5s, 1.0s",2023-07-20_16h26.29.600,Rewa's Exp,2023.1.2,60.05883363350552,
,,,,,,,,,,,,,,,,,,,,,,,,,,,,,,,None,,,,,,,,,,,,,,,,,,,,,,,,Rachel,1 - without skip,"57:43, 54:46","1.5s, 1.0s",2023-07-20_16h26.29.600,Rewa's Exp,2023.1.2,60.05883363350552,
Countdown_1s.mp4,red,"[-1.0, 1.0, -1.0]",right,Countdown_1s.jpg,0,0,0,0,0,0,0,0,0,0,0,1,,,,,,,,,,,,,,,,111.09666710000056,105.61584680000124,106.54697390000001,0.9311270999987755,None,0,None,-2,57:43,-2,,,,,,,,,,,,,,Rachel,1 - without skip,"57:43, 54:46","1.5s, 1.0s",2023-07-20_16h26.29.600,Rewa's Exp,2023.1.2,60.05883363350552,
Countdown_1.5s.mp4,red,"[-1.0, 1.0, -1.0]",right,Countdown_1.5s.jpg,0,0,0,0,0,0,0,0,0,1,1,0,,,,,,,,,,,,,,,,115.96515250000084,110.48422550000032,111.36350070000117,0.8792752000008477,left,0,None,-4,57:43,-2,0.8507035000002361,,,,,,,,,,,,,Rachel,1 - without skip,"57:43, 54:46","1.5s, 1.0s",2023-07-20_16h26.29.600,Rewa's Exp,2023.1.2,60.05883363350552,
Countdown_1.5s.mp4,"[-1.0, 1.0, -1.0]",red,left,Countdown_1.5s.jpg,0,0,0,0,0,0,0,0,0,2,2,2,,,,,,,,,,,,,,,,120.77476940000088,115.29396090000046,115.8636774000006,0.5697165000001405,right,0,None,-6,57:43,-2,0.5454422999991948,,,,,,,,,,,,,Rachel,1 - without skip,"57:43, 54:46","1.5s, 1.0s",2023-07-20_16h26.29.600,Rewa's Exp,2023.1.2,60.05883363350552,
Countdown_1s.mp4,"[-1.0, 1.0, -1.0]",red,left,Countdown_1s.jpg,0,0,0,0,0,0,0,0,0,3,3,3,,,,,,,,,,,,,,,,125.29392259999986,119.81313990000126,120.48015040000064,0.6670104999993782,right,0,None,-8,57:43,-2,0.649891099998058,,,,,,,,,,,,,Rachel,1 - without skip,"57:43, 54:46","1.5s, 1.0s",2023-07-20_16h26.29.600,Rewa's Exp,2023.1.2,60.05883363350552,
Countdown_1.5s.mp4,"[-1.0, 1.0, -1.0]",red,left,Countdown_1.5s.jpg,0,0,0,0,0,0,0,0,1,0,4,2,,,,,,,,,,,,,,,,129.9012027000008,124.42040540000016,125.20054130000062,0.7801359000004595,right,0,None,-10,57:43,-2,0.7624405999995361,,,,,,,,,,,,,Rachel,1 - without skip,"57:43, 54:46","1.5s, 1.0s",2023-07-20_16h26.29.600,Rewa's Exp,2023.1.2,60.05883363350552,
Countdown_1s.mp4,red,"[-1.0, 1.0, -1.0]",right,Countdown_1s.jpg,0,0,0,0,0,0,0,0,1,1,5,1,,,,,,,,,,,,,,,,134.59203049999996,129.11122680000153,129.86386180000045,0.7526349999989179,left,0,None,-12,57:43,-2,0.7290214999975433,,,,,,,,,,,,,Rachel,1 - without skip,"57:43, 54:46","1.5s, 1.0s",2023-07-20_16h26.29.600,Rewa's Exp,2023.1.2,60.05883363350552,
Countdown_1.5s.mp4,red,"[-1.0, 1.0, -1.0]",right,Countdown_1.5s.jpg,0,0,0,0,0,0,0,0,1,2,6,0,,,,,,,,,,,,,,,,139.31935030000022,133.83854040000006,134.86354780000147,1.0250074000014138,left,0,None,-14,57:43,-2,1.0009800999978324,,,,,,,,,,,,,Rachel,1 - without skip,"57:43, 54:46","1.5s, 1.0s",2023-07-20_16h26.29.600,Rewa's Exp,2023.1.2,60.05883363350552,
Countdown_1s.mp4,"[-1.0, 1.0, -1.0]",red,left,Countdown_1s.jpg,0,0,0,0,0,0,0,0,1,3,7,3,,,,,,,,,,,,,,,,144.24565780000012,138.76484500000151,139.54692840000098,0.7820833999994647,left,1,None,-13,57:43,1,0.7625635999975202,,,,,,,,,,,,,Rachel,1 - without skip,"57:43, 54:46","1.5s, 1.0s",2023-07-20_16h26.29.600,Rewa's Exp,2023.1.2,60.05883363350552,
Countdown_1.5s.mp4,"[-1.0, 1.0, -1.0]",red,left,Countdown_1.5s.jpg,0,0,0,0,0,0,0,0,,,,,0,0,0,2,,,,,,,,,,,,,143.27514580000025,144.13039560000107,0.85524980000082,,,,-12,54:46,1,,left,1,0.8355608000001666,None,,,,,,,,,Rachel,1 - without skip,"57:43, 54:46","1.5s, 1.0s",2023-07-20_16h26.29.600,Rewa's Exp,2023.1.2,60.05883363350552,
Countdown_1s.mp4,"[-1.0, 1.0, -1.0]",red,left,Countdown_1s.jpg,0,0,0,0,0,0,0,0,,,,,0,1,1,3,,,,,,,,,,,,,148.04494180000074,148.7802378000015,0.7352960000007442,,,,-11,54:46,1,,left,1,0.7065307999982906,None,,,,,,,,,Rachel,1 - without skip,"57:43, 54:46","1.5s, 1.0s",2023-07-20_16h26.29.600,Rewa's Exp,2023.1.2,60.05883363350552,
Countdown_1s.mp4,red,"[-1.0, 1.0, -1.0]",right,Countdown_1s.jpg,0,0,0,0,0,0,0,0,,,,,0,2,2,1,,,,,,,,,,,,,152.69564600000012,153.4969713999999,0.8013253999997687,,,,-13,54:46,-2,,left,0,0.7755885999995371,None,,,,,,,,,Rachel,1 - without skip,"57:43, 54:46","1.5s, 1.0s",2023-07-20_16h26.29.600,Rewa's Exp,2023.1.2,60.05883363350552,
Countdown_1.5s.mp4,red,"[-1.0, 1.0, -1.0]",right,Countdown_1.5s.jpg,0,0,0,0,0,0,0,0,,,,,0,3,3,0,,,,,,,,,,,,,157.4141365000014,158.46354350000001,1.0494069999986095,,,,-12,54:46,1,,right,1,1.016732599999159,None,,,,,,,,,Rachel,1 - without skip,"57:43, 54:46","1.5s, 1.0s",2023-07-20_16h26.29.600,Rewa's Exp,2023.1.2,60.05883363350552,
Countdown_1.5s.mp4,red,"[-1.0, 1.0, -1.0]",right,Countdown_1.5s.jpg,0,0,0,0,0,0,0,0,,,,,1,0,4,0,,,,,,,,,,,,,162.36458660000062,163.36358800000016,0.9990013999995426,,,,-14,54:46,-2,,left,0,0.9702952999996342,None,,,,,,,,,Rachel,1 - without skip,"57:43, 54:46","1.5s, 1.0s",2023-07-20_16h26.29.600,Rewa's Exp,2023.1.2,60.05883363350552,
Countdown_1s.mp4,"[-1.0, 1.0, -1.0]",red,left,Countdown_1s.jpg,0,0,0,0,0,0,0,0,,,,,1,1,5,3,,,,,,,,,,,,,167.28449499999988,168.26397460000044,0.979479600000559,,,,-16,54:46,-2,,None,0,,None,,,,,,,,,Rachel,1 - without skip,"57:43, 54:46","1.5s, 1.0s",2023-07-20_16h26.29.600,Rewa's Exp,2023.1.2,60.05883363350552,
Countdown_1.5s.mp4,"[-1.0, 1.0, -1.0]",red,left,Countdown_1.5s.jpg,0,0,0,0,0,0,0,0,,,,,1,2,6,2,,,,,,,,,,,,,172.17009870000038,173.13050530000146,0.9604066000010789,,,,-15,54:46,1,,left,1,0.9410655999981827,None,,,,,,,,,Rachel,1 - without skip,"57:43, 54:46","1.5s, 1.0s",2023-07-20_16h26.29.600,Rewa's Exp,2023.1.2,60.05883363350552,
Countdown_1s.mp4,red,"[-1.0, 1.0, -1.0]",right,Countdown_1s.jpg,0,0,0,0,0,0,0,0,,,,,1,3,7,1,,,,,,,,,,,,,177.06777110000075,177.93038420000084,0.8626131000000896,,,,-17,54:46,-2,,left,0,0.8433653999982198,None,,,,,,,,,Rachel,1 - without skip,"57:43, 54:46","1.5s, 1.0s",2023-07-20_16h26.29.600,Rewa's Exp,2023.1.2,60.05883363350552,
Countdown_1s.mp4,red,"[-1.0, 1.0, -1.0]",right,Countdown_1s.jpg,0,0,0,0,0,0,0,0,,,,,,,,,0,0,0,1,,,,,,,,,,,,,,,,,,,,,,,184.55593060000137,184.55593060000137,184.55593060000137,184.55593060000137,space,39.12480989999858,,,Rachel,1 - without skip,"57:43, 54:46","1.5s, 1.0s",2023-07-20_16h26.29.600,Rewa's Exp,2023.1.2,60.05883363350552,
Countdown_1s.mp4,red,"[-1.0, 1.0, -1.0]",right,Countdown_1s.jpg,1,0,1,0,0,0,0,0,0,0,0,1,,,,,0,0,0,1,,,,,,,,226.48398760000055,221.00313880000067,221.91385750000154,0.9107187000008707,left,0,None,-19,57:43,-2,0.8835959999978513,,,,,,,,,,,,,Rachel,1 - without skip,"57:43, 54:46","1.5s, 1.0s",2023-07-20_16h26.29.600,Rewa's Exp,2023.1.2,60.05883363350552,
Countdown_1.5s.mp4,"[-1.0, 1.0, -1.0]",red,left,Countdown_1.5s.jpg,1,0,1,0,0,0,0,0,0,1,1,2,,,,,0,0,0,1,,,,,,,,231.36555210000006,225.88465950000136,226.8637303000014,0.979070800000045,left,1,None,-18,57:43,1,0.9470826999986457,,,,,,,,,,,,,Rachel,1 - without skip,"57:43, 54:46","1.5s, 1.0s",2023-07-20_16h26.29.600,Rewa's Exp,2023.1.2,60.05883363350552,
Countdown_1.5s.mp4,red,"[-1.0, 1.0, -1.0]",right,Countdown_1.5s.jpg,1,0,1,0,0,0,0,0,0,2,2,0,,,,,0,0,0,1,,,,,,,,236.25747410000076,230.7766448000002,231.68058980000023,0.9039450000000215,right,1,None,-17,57:43,1,0.878281599998445,,,,,,,,,,,,,Rachel,1 - without skip,"57:43, 54:46","1.5s, 1.0s",2023-07-20_16h26.29.600,Rewa's Exp,2023.1.2,60.05883363350552,
Countdown_1s.mp4,"[-1.0, 1.0, -1.0]",red,left,Countdown_1s.jpg,1,0,1,0,0,0,0,0,0,3,3,3,,,,,0,0,0,1,,,,,,,,241.06710940000085,235.58626520000144,236.38061019999986,0.7943449999984296,left,1,None,-16,57:43,1,0.7729598999994778,,,,,,,,,,,,,Rachel,1 - without skip,"57:43, 54:46","1.5s, 1.0s",2023-07-20_16h26.29.600,Rewa's Exp,2023.1.2,60.05883363350552,
Countdown_1.5s.mp4,red,"[-1.0, 1.0, -1.0]",right,Countdown_1.5s.jpg,1,0,1,0,0,0,0,0,1,0,4,0,,,,,0,0,0,1,,,,,,,,245.81210760000067,240.3312593999999,241.4303028000013,1.099043400001392,left,0,None,-18,57:43,-2,1.0676934999992227,,,,,,,,,,,,,Rachel,1 - without skip,"57:43, 54:46","1.5s, 1.0s",2023-07-20_16h26.29.600,Rewa's Exp,2023.1.2,60.05883363350552,
Countdown_1s.mp4,"[-1.0, 1.0, -1.0]",red,left,Countdown_1s.jpg,1,0,1,0,0,0,0,0,1,1,5,3,,,,,0,0,0,1,,,,,,,,250.79867800000102,245.31790170000022,246.04710420000083,0.7292025000006106,left,1,None,-17,57:43,1,0.712687699997332,,,,,,,,,,,,,Rachel,1 - without skip,"57:43, 54:46","1.5s, 1.0s",2023-07-20_16h26.29.600,Rewa's Exp,2023.1.2,60.05883363350552,
Countdown_1.5s.mp4,"[-1.0, 1.0, -1.0]",red,left,Countdown_1.5s.jpg,1,0,1,0,0,0,0,0,1,2,6,2,,,,,0,0,0,1,,,,,,,,255.48632030000044,250.00546700000086,251.047010100001,1.0415431000001263,right,0,None,-19,57:43,-2,1.0247686000002432,,,,,,,,,,,,,Rachel,1 - without skip,"57:43, 54:46","1.5s, 1.0s",2023-07-20_16h26.29.600,Rewa's Exp,2023.1.2,60.05883363350552,
Countdown_1s.mp4,red,"[-1.0, 1.0, -1.0]",right,Countdown_1s.jpg,1,0,1,0,0,0,0,0,1,3,7,1,,,,,0,0,0,1,,,,,,,,260.44655390000116,254.96568620000107,255.7805958000008,0.8149095999997371,left,0,None,-21,57:43,-2,0.793469999998706,,,,,,,,,,,,,Rachel,1 - without skip,"57:43, 54:46","1.5s, 1.0s",2023-07-20_16h26.29.600,Rewa's Exp,2023.1.2,60.05883363350552,
Countdown_1.5s.mp4,"[-1.0, 1.0, -1.0]",red,left,Countdown_1.5s.jpg,1,0,1,0,0,0,0,0,,,,,0,0,0,2,0,0,0,1,,,,,,,,,259.69798600000104,260.83048830000007,1.1325022999990324,,,,-20,54:46,1,,left,1,1.1008593999995355,None,,,,,,,,,Rachel,1 - without skip,"57:43, 54:46","1.5s, 1.0s",2023-07-20_16h26.29.600,Rewa's Exp,2023.1.2,60.05883363350552,
Countdown_1s.mp4,"[-1.0, 1.0, -1.0]",red,left,Countdown_1s.jpg,1,0,1,0,0,0,0,0,,,,,0,1,1,3,0,0,0,1,,,,,,,,,264.77346390000093,265.6806041,0.9071401999990485,,,,-22,54:46,-2,,right,0,0.8743783999998413,None,,,,,,,,,Rachel,1 - without skip,"57:43, 54:46","1.5s, 1.0s",2023-07-20_16h26.29.600,Rewa's Exp,2023.1.2,60.05883363350552,
Countdown_1s.mp4,red,"[-1.0, 1.0, -1.0]",right,Countdown_1s.jpg,1,0,1,0,0,0,0,0,,,,,0,2,2,1,0,0,0,1,,,,,,,,,269.64370229999986,270.4139843000012,0.7702820000013162,,,,-24,54:46,-2,,left,0,0.7476577999987057,None,,,,,,,,,Rachel,1 - without skip,"57:43, 54:46","1.5s, 1.0s",2023-07-20_16h26.29.600,Rewa's Exp,2023.1.2,60.05883363350552,
Countdown_1.5s.mp4,red,"[-1.0, 1.0, -1.0]",right,Countdown_1.5s.jpg,1,0,1,0,0,0,0,0,,,,,0,3,3,0,0,0,0,1,,,,,,,,,274.35597469999993,275.48046010000144,1.1244854000015039,,,,-26,54:46,-2,,left,0,1.106966099998317,None,,,,,,,,,Rachel,1 - without skip,"57:43, 54:46","1.5s, 1.0s",2023-07-20_16h26.29.600,Rewa's Exp,2023.1.2,60.05883363350552,
Countdown_1.5s.mp4,"[-1.0, 1.0, -1.0]",red,left,Countdown_1.5s.jpg,1,0,1,0,0,0,0,0,,,,,1,0,4,2,0,0,0,1,,,,,,,,,279.39234510000097,280.58046230000036,1.1881171999993967,,,,-25,54:46,1,,left,1,1.1674698999995599,None,,,,,,,,,Rachel,1 - without skip,"57:43, 54:46","1.5s, 1.0s",2023-07-20_16h26.29.600,Rewa's Exp,2023.1.2,60.05883363350552,
Countdown_1s.mp4,red,"[-1.0, 1.0, -1.0]",right,Countdown_1s.jpg,1,0,1,0,0,0,0,0,,,,,1,1,5,1,0,0,0,1,,,,,,,,,284.5066708000013,285.3638654000006,0.8571945999992749,,,,-24,54:46,1,,right,1,0.8277996999986499,None,,,,,,,,,Rachel,1 - without skip,"57:43, 54:46","1.5s, 1.0s",2023-07-20_16h26.29.600,Rewa's Exp,2023.1.2,60.05883363350552,
Countdown_1s.mp4,"[-1.0, 1.0, -1.0]",red,left,Countdown_1s.jpg,1,0,1,0,0,0,0,0,,,,,1,2,6,3,0,0,0,1,,,,,,,,,289.26353070000005,290.04759190000004,0.7840611999999965,,,,-26,54:46,-2,,right,0,0.7602023999988887,None,,,,,,,,,Rachel,1 - without skip,"57:43, 54:46","1.5s, 1.0s",2023-07-20_16h26.29.600,Rewa's Exp,2023.1.2,60.05883363350552,
Countdown_1.5s.mp4,red,"[-1.0, 1.0, -1.0]",right,Countdown_1.5s.jpg,1,0,1,0,0,0,0,0,,,,,1,3,7,0,0,0,0,1,,,,,,,,,293.93697450000036,295.1637064000006,1.2267319000002317,,,,-28,54:46,-2,,left,0,1.2071611999981542,None,,,,,,,,,Rachel,1 - without skip,"57:43, 54:46","1.5s, 1.0s",2023-07-20_16h26.29.600,Rewa's Exp,2023.1.2,60.05883363350552,
Countdown_1.5s.mp4,"[-1.0, 1.0, -1.0]",red,left,Countdown_1.5s.jpg,1,0,1,0,0,0,0,0,,,,,,,,,0,0,0,2,,,,,,,,,,,,,,,,,,,,,,,301.7780410000014,301.7780410000014,301.7780410000014,301.7780410000014,space,2.6776003999984823,,,Rachel,1 - without skip,"57:43, 54:46","1.5s, 1.0s",2023-07-20_16h26.29.600,Rewa's Exp,2023.1.2,60.05883363350552,
Countdown_1.5s.mp4,red,"[-1.0, 1.0, -1.0]",right,Countdown_1.5s.jpg,2,0,2,0,0,0,0,1,0,0,0,0,,,,,0,0,0,2,,,,,,,,307.26433590000124,301.78354430000036,302.8471571000009,1.0636128000005556,left,0,None,-30,57:43,-2,1.0399090999981127,,,,,,,,,,,,,Rachel,1 - without skip,"57:43, 54:46","1.5s, 1.0s",2023-07-20_16h26.29.600,Rewa's Exp,2023.1.2,60.05883363350552,
Countdown_1s.mp4,red,"[-1.0, 1.0, -1.0]",right,Countdown_1s.jpg,2,0,2,0,0,0,0,1,0,1,1,1,,,,,0,0,0,2,,,,,,,,312.2354647000011,306.7545817000009,307.7305969000008,0.9760151999998925,None,0,None,-32,57:43,-2,,,,,,,,,,,,,,Rachel,1 - without skip,"57:43, 54:46","1.5s, 1.0s",2023-07-20_16h26.29.600,Rewa's Exp,2023.1.2,60.05883363350552,
Countdown_1.5s.mp4,"[-1.0, 1.0, -1.0]",red,left,Countdown_1.5s.jpg,2,0,2,0,0,0,0,1,0,2,2,2,,,,,0,0,0,2,,,,,,,,317.11578980000013,311.6349530000007,312.54793470000004,0.9129816999993636,left,1,None,-31,57:43,1,0.891695799997251,,,,,,,,,,,,,Rachel,1 - without skip,"57:43, 54:46","1.5s, 1.0s",2023-07-20_16h26.29.600,Rewa's Exp,2023.1.2,60.05883363350552,
Countdown_1s.mp4,"[-1.0, 1.0, -1.0]",red,left,Countdown_1s.jpg,2,0,2,0,0,0,0,1,0,3,3,3,,,,,0,0,0,2,,,,,,,,321.953912500001,316.47311290000107,317.2973114000015,0.8241985000004206,left,1,None,-30,57:43,1,0.7979932999987795,,,,,,,,,,,,,Rachel,1 - without skip,"57:43, 54:46","1.5s, 1.0s",2023-07-20_16h26.29.600,Rewa's Exp,2023.1.2,60.05883363350552,
Countdown_1.5s.mp4,"[-1.0, 1.0, -1.0]",red,left,Countdown_1.5s.jpg,2,0,2,0,0,0,0,1,1,0,4,2,,,,,0,0,0,2,,,,,,,,326.68044400000144,321.1996136000016,322.0970948000013,0.8974811999996746,left,1,None,-29,57:43,1,0.879696399997556,,,,,,,,,,,,,Rachel,1 - without skip,"57:43, 54:46","1.5s, 1.0s",2023-07-20_16h26.29.600,Rewa's Exp,2023.1.2,60.05883363350552,
Countdown_1s.mp4,red,"[-1.0, 1.0, -1.0]",right,Countdown_1s.jpg,2,0,2,0,0,0,0,1,1,1,5,1,,,,,0,0,0,2,,,,,,,,331.47700280000026,325.99618270000065,326.9639136000005,0.9677308999998786,None,0,None,-31,57:43,-2,,,,,,,,,,,,,,Rachel,1 - without skip,"57:43, 54:46","1.5s, 1.0s",2023-07-20_16h26.29.600,Rewa's Exp,2023.1.2,60.05883363350552,
Countdown_1s.mp4,"[-1.0, 1.0, -1.0]",red,left,Countdown_1s.jpg,2,0,2,0,0,0,0,1,1,2,6,3,,,,,0,0,0,2,,,,,,,,336.3644680000016,330.88363540000137,331.5973858000016,0.7137504000002082,left,1,None,-30,57:43,1,0.6923320999976568,,,,,,,,,,,,,Rachel,1 - without skip,"57:43, 54:46","1.5s, 1.0s",2023-07-20_16h26.29.600,Rewa's Exp,2023.1.2,60.05883363350552,
Countdown_1.5s.mp4,red,"[-1.0, 1.0, -1.0]",right,Countdown_1.5s.jpg,2,0,2,0,0,0,0,1,1,3,7,0,,,,,0,0,0,2,,,,,,,,341.0393174000001,335.55848400000104,336.6139357000011,1.0554517000000487,right,1,None,-29,57:43,1,1.0241555999982666,,,,,,,,,,,,,Rachel,1 - without skip,"57:43, 54:46","1.5s, 1.0s",2023-07-20_16h26.29.600,Rewa's Exp,2023.1.2,60.05883363350552,
Countdown_1.5s.mp4,red,"[-1.0, 1.0, -1.0]",right,Countdown_1.5s.jpg,2,0,2,0,0,0,0,1,,,,,0,0,0,0,0,0,0,2,,,,,,,,,340.53061190000153,341.61383340000066,1.0832214999991265,,,,-31,54:46,-2,,left,0,1.0608541000001424,None,,,,,,,,,Rachel,1 - without skip,"57:43, 54:46","1.5s, 1.0s",2023-07-20_16h26.29.600,Rewa's Exp,2023.1.2,60.05883363350552,
Countdown_1s.mp4,red,"[-1.0, 1.0, -1.0]",right,Countdown_1s.jpg,2,0,2,0,0,0,0,1,,,,,0,1,1,1,0,0,0,2,,,,,,,,,345.52633480000077,346.31397930000094,0.7876445000001695,,,,-30,54:46,1,,right,1,0.7702273999984754,None,,,,,,,,,Rachel,1 - without skip,"57:43, 54:46","1.5s, 1.0s",2023-07-20_16h26.29.600,Rewa's Exp,2023.1.2,60.05883363350552,
Countdown_1.5s.mp4,"[-1.0, 1.0, -1.0]",red,left,Countdown_1.5s.jpg,2,0,2,0,0,0,0,1,,,,,0,2,2,2,0,0,0,2,,,,,,,,,350.2024557000004,351.0975939,0.8951381999995647,,,,-29,54:46,1,,left,1,0.8774814999997034,None,,,,,,,,,Rachel,1 - without skip,"57:43, 54:46","1.5s, 1.0s",2023-07-20_16h26.29.600,Rewa's Exp,2023.1.2,60.05883363350552,
Countdown_1s.mp4,"[-1.0, 1.0, -1.0]",red,left,Countdown_1s.jpg,2,0,2,0,0,0,0,1,,,,,0,3,3,3,0,0,0,2,,,,,,,,,355.00695090000045,355.8142065000011,0.8072556000006443,,,,-28,54:46,1,,left,1,0.7840415999999095,None,,,,,,,,,Rachel,1 - without skip,"57:43, 54:46","1.5s, 1.0s",2023-07-20_16h26.29.600,Rewa's Exp,2023.1.2,60.05883363350552,
Countdown_1s.mp4,"[-1.0, 1.0, -1.0]",red,left,Countdown_1s.jpg,2,0,2,0,0,0,0,1,,,,,1,0,4,3,0,0,0,2,,,,,,,,,359.717042100001,360.4140271000015,0.6969850000004953,,,,-30,54:46,-2,,right,0,0.6653351999975712,None,,,,,,,,,Rachel,1 - without skip,"57:43, 54:46","1.5s, 1.0s",2023-07-20_16h26.29.600,Rewa's Exp,2023.1.2,60.05883363350552,
Countdown_1s.mp4,red,"[-1.0, 1.0, -1.0]",right,Countdown_1s.jpg,2,0,2,0,0,0,0,1,,,,,1,1,5,1,0,0,0,2,,,,,,,,,364.32653420000133,365.1976169999998,0.8710827999984758,,,,-32,54:46,-2,,left,0,0.8400793999990128,None,,,,,,,,,Rachel,1 - without skip,"57:43, 54:46","1.5s, 1.0s",2023-07-20_16h26.29.600,Rewa's Exp,2023.1.2,60.05883363350552,
Countdown_1.5s.mp4,"[-1.0, 1.0, -1.0]",red,left,Countdown_1.5s.jpg,2,0,2,0,0,0,0,1,,,,,1,2,6,2,0,0,0,2,,,,,,,,,369.1220495000016,370.4806997000014,1.358650199999829,,,,-31,54:46,1,,left,1,1.333211699997264,None,,,,,,,,,Rachel,1 - without skip,"57:43, 54:46","1.5s, 1.0s",2023-07-20_16h26.29.600,Rewa's Exp,2023.1.2,60.05883363350552,
Countdown_1.5s.mp4,red,"[-1.0, 1.0, -1.0]",right,Countdown_1.5s.jpg,2,0,2,0,0,0,0,1,,,,,1,3,7,0,0,0,0,2,,,,,,,,,374.39668429999983,375.46391720000065,1.0672329000008176,,,,-30,54:46,1,,right,1,1.043460499999128,None,,,,,,,,,Rachel,1 - without skip,"57:43, 54:46","1.5s, 1.0s",2023-07-20_16h26.29.600,Rewa's Exp,2023.1.2,60.05883363350552,
Countdown_1s.mp4,"[-1.0, 1.0, -1.0]",red,left,Countdown_1s.jpg,2,0,2,0,0,0,0,1,,,,,,,,,0,0,0,3,,,,,,,,,,,,,,,,,,,,,,,382.1232025999998,382.1232025999998,382.1232025999998,382.1232025999998,space,5.260938899999019,,,Rachel,1 - without skip,"57:43, 54:46","1.5s, 1.0s",2023-07-20_16h26.29.600,Rewa's Exp,2023.1.2,60.05883363350552,
Countdown_1s.mp4,red,"[-1.0, 1.0, -1.0]",right,Countdown_1s.jpg,3,0,3,0,0,0,0,0,0,0,0,1,,,,,0,0,0,3,,,,,,,,390.19482190000053,384.7140483000003,385.54759900000136,0.8335507000010693,right,1,None,-29,57:43,1,0.8134743999980856,,,,,,,,,,,,,Rachel,1 - without skip,"57:43, 54:46","1.5s, 1.0s",2023-07-20_16h26.29.600,Rewa's Exp,2023.1.2,60.05883363350552,
Countdown_1.5s.mp4,"[-1.0, 1.0, -1.0]",red,left,Countdown_1.5s.jpg,3,0,3,0,0,0,0,0,0,1,1,2,,,,,0,0,0,3,,,,,,,,394.9908180000002,389.50998320000144,390.4974232000004,0.9874399999989691,right,0,None,-31,57:43,-2,0.9611759999988863,,,,,,,,,,,,,Rachel,1 - without skip,"57:43, 54:46","1.5s, 1.0s",2023-07-20_16h26.29.600,Rewa's Exp,2023.1.2,60.05883363350552,
Countdown_1s.mp4,"[-1.0, 1.0, -1.0]",red,left,Countdown_1s.jpg,3,0,3,0,0,0,0,0,0,2,2,3,,,,,0,0,0,3,,,,,,,,399.871879100001,394.3911822000009,395.24743450000096,0.856252300000051,left,1,None,-30,57:43,1,0.8241151999991416,,,,,,,,,,,,,Rachel,1 - without skip,"57:43, 54:46","1.5s, 1.0s",2023-07-20_16h26.29.600,Rewa's Exp,2023.1.2,60.05883363350552,
Countdown_1.5s.mp4,red,"[-1.0, 1.0, -1.0]",right,Countdown_1.5s.jpg,3,0,3,0,0,0,0,0,0,3,3,0,,,,,0,0,0,3,,,,,,,,404.62642760000017,399.1456883999999,400.11426550000033,0.9685771000004024,right,1,None,-29,57:43,1,0.942318699999305,,,,,,,,,,,,,Rachel,1 - without skip,"57:43, 54:46","1.5s, 1.0s",2023-07-20_16h26.29.600,Rewa's Exp,2023.1.2,60.05883363350552,
Countdown_1s.mp4,red,"[-1.0, 1.0, -1.0]",right,Countdown_1s.jpg,3,0,3,0,0,0,0,0,1,0,4,1,,,,,0,0,0,3,,,,,,,,409.55179510000016,404.0710667000003,405.0475641000012,0.9764974000008806,None,0,None,-31,57:43,-2,,,,,,,,,,,,,,Rachel,1 - without skip,"57:43, 54:46","1.5s, 1.0s",2023-07-20_16h26.29.600,Rewa's Exp,2023.1.2,60.05883363350552,
Countdown_1s.mp4,"[-1.0, 1.0, -1.0]",red,left,Countdown_1s.jpg,3,0,3,0,0,0,0,0,1,1,5,3,,,,,0,0,0,3,,,,,,,,414.4285365000014,408.9477643000009,409.7142221000013,0.766457800000353,left,1,None,-30,57:43,1,0.7399352999982511,,,,,,,,,,,,,Rachel,1 - without skip,"57:43, 54:46","1.5s, 1.0s",2023-07-20_16h26.29.600,Rewa's Exp,2023.1.2,60.05883363350552,
Countdown_1.5s.mp4,"[-1.0, 1.0, -1.0]",red,left,Countdown_1.5s.jpg,3,0,3,0,0,0,0,0,1,2,6,2,,,,,0,0,0,3,,,,,,,,419.1066385000013,413.6258736,414.66418560000056,1.0383120000005874,right,0,None,-32,57:43,-2,1.0059669999991456,,,,,,,,,,,,,Rachel,1 - without skip,"57:43, 54:46","1.5s, 1.0s",2023-07-20_16h26.29.600,Rewa's Exp,2023.1.2,60.05883363350552,
Countdown_1.5s.mp4,red,"[-1.0, 1.0, -1.0]",right,Countdown_1.5s.jpg,3,0,3,0,0,0,0,0,1,3,7,0,,,,,0,0,0,3,,,,,,,,424.07197910000104,418.5914827000015,419.68064400000003,1.0891612999985227,left,0,None,-34,57:43,-2,1.0564446999997017,,,,,,,,,,,,,Rachel,1 - without skip,"57:43, 54:46","1.5s, 1.0s",2023-07-20_16h26.29.600,Rewa's Exp,2023.1.2,60.05883363350552,
Countdown_1s.mp4,red,"[-1.0, 1.0, -1.0]",right,Countdown_1s.jpg,3,0,3,0,0,0,0,0,,,,,0,0,0,1,0,0,0,3,,,,,,,,,423.58641030000035,424.48081319999983,0.8944028999994771,,,,-33,54:46,1,,right,1,0.8698933999985456,None,,,,,,,,,Rachel,1 - without skip,"57:43, 54:46","1.5s, 1.0s",2023-07-20_16h26.29.600,Rewa's Exp,2023.1.2,60.05883363350552,
Countdown_1s.mp4,"[-1.0, 1.0, -1.0]",red,left,Countdown_1s.jpg,3,0,3,0,0,0,0,0,,,,,0,1,1,3,0,0,0,3,,,,,,,,,428.38034719999996,429.09747419999985,0.7171269999998913,,,,-32,54:46,1,,left,1,0.6919153999988339,None,,,,,,,,,Rachel,1 - without skip,"57:43, 54:46","1.5s, 1.0s",2023-07-20_16h26.29.600,Rewa's Exp,2023.1.2,60.05883363350552,
Countdown_1.5s.mp4,"[-1.0, 1.0, -1.0]",red,left,Countdown_1.5s.jpg,3,0,3,0,0,0,0,0,,,,,0,2,2,2,0,0,0,3,,,,,,,,,433.02300340000147,433.76409310000054,0.7410896999990655,,,,-31,54:46,1,,left,1,0.7122040999984165,None,,,,,,,,,Rachel,1 - without skip,"57:43, 54:46","1.5s, 1.0s",2023-07-20_16h26.29.600,Rewa's Exp,2023.1.2,60.05883363350552,
Countdown_1.5s.mp4,red,"[-1.0, 1.0, -1.0]",right,Countdown_1.5s.jpg,3,0,3,0,0,0,0,0,,,,,0,3,3,0,0,0,0,3,,,,,,,,,437.66203959999984,438.7808748000007,1.1188352000008308,,,,-33,54:46,-2,,left,0,1.0884813999982725,None,,,,,,,,,Rachel,1 - without skip,"57:43, 54:46","1.5s, 1.0s",2023-07-20_16h26.29.600,Rewa's Exp,2023.1.2,60.05883363350552,
Countdown_1s.mp4,"[-1.0, 1.0, -1.0]",red,left,Countdown_1s.jpg,3,0,3,0,0,0,0,0,,,,,1,0,4,3,0,0,0,3,,,,,,,,,442.6984170000014,443.4809777999999,0.7825607999984641,,,,-32,54:46,1,,left,1,0.7565860999984579,None,,,,,,,,,Rachel,1 - without skip,"57:43, 54:46","1.5s, 1.0s",2023-07-20_16h26.29.600,Rewa's Exp,2023.1.2,60.05883363350552,
Countdown_1s.mp4,red,"[-1.0, 1.0, -1.0]",right,Countdown_1s.jpg,3,0,3,0,0,0,0,0,,,,,1,1,5,1,0,0,0,3,,,,,,,,,447.36891020000076,448.09754520000024,0.7286349999994854,,,,-34,54:46,-2,,left,0,0.7030730999977095,None,,,,,,,,,Rachel,1 - without skip,"57:43, 54:46","1.5s, 1.0s",2023-07-20_16h26.29.600,Rewa's Exp,2023.1.2,60.05883363350552,
Countdown_1.5s.mp4,"[-1.0, 1.0, -1.0]",red,left,Countdown_1.5s.jpg,3,0,3,0,0,0,0,0,,,,,1,2,6,2,0,0,0,3,,,,,,,,,452.0519648999998,452.8974468000015,0.8454819000016869,,,,-33,54:46,1,,left,1,0.8281904999985272,None,,,,,,,,,Rachel,1 - without skip,"57:43, 54:46","1.5s, 1.0s",2023-07-20_16h26.29.600,Rewa's Exp,2023.1.2,60.05883363350552,
Countdown_1.5s.mp4,red,"[-1.0, 1.0, -1.0]",right,Countdown_1.5s.jpg,3,0,3,0,0,0,0,0,,,,,1,3,7,0,0,0,0,3,,,,,,,,,456.80589560000044,457.58069160000014,0.7747959999996965,,,,-32,54:46,1,,right,1,0.7450628999977198,None,,,,,,,,,Rachel,1 - without skip,"57:43, 54:46","1.5s, 1.0s",2023-07-20_16h26.29.600,Rewa's Exp,2023.1.2,60.05883363350552,
Countdown_1s.mp4,red,"[-1.0, 1.0, -1.0]",right,Countdown_1s.jpg,3,0,3,0,0,0,0,0,,,,,,,,,0,0,0,1,,,,,,,,,,,,,,,,,,,,,,,464.19482160000007,464.19482160000007,464.19482160000007,464.19482160000007,space,3.2124918999998044,,,Rachel,1 - without skip,"57:43, 54:46","1.5s, 1.0s",2023-07-20_16h26.29.600,Rewa's Exp,2023.1.2,60.05883363350552,
Countdown_1s.mp4,red,"[-1.0, 1.0, -1.0]",right,Countdown_1s.jpg,4,0,4,0,0,0,0,0,0,0,0,1,,,,,0,0,0,1,,,,,,,,470.2283490000009,464.74767390000125,465.4809060000007,0.7332320999994408,left,0,None,-34,57:43,-2,0.7161867999984679,,,,,,,,,,,,,Rachel,1 - without skip,"57:43, 54:46","1.5s, 1.0s",2023-07-20_16h26.29.600,Rewa's Exp,2023.1.2,60.05883363350552,
Countdown_1.5s.mp4,red,"[-1.0, 1.0, -1.0]",right,Countdown_1.5s.jpg,4,0,4,0,0,0,0,0,0,1,1,0,,,,,0,0,0,1,,,,,,,,474.85366010000143,469.3728779000012,470.58066620000136,1.2077883000001748,right,1,None,-33,57:43,1,1.1872767999993812,,,,,,,,,,,,,Rachel,1 - without skip,"57:43, 54:46","1.5s, 1.0s",2023-07-20_16h26.29.600,Rewa's Exp,2023.1.2,60.05883363350552,
Countdown_1.5s.mp4,"[-1.0, 1.0, -1.0]",red,left,Countdown_1.5s.jpg,4,0,4,0,0,0,0,0,0,2,2,2,,,,,0,0,0,1,,,,,,,,479.99165490000087,474.5108237000004,475.2976488000004,0.7868250999999873,left,1,None,-32,57:43,1,0.7605304999997315,,,,,,,,,,,,,Rachel,1 - without skip,"57:43, 54:46","1.5s, 1.0s",2023-07-20_16h26.29.600,Rewa's Exp,2023.1.2,60.05883363350552,
Countdown_1s.mp4,"[-1.0, 1.0, -1.0]",red,left,Countdown_1s.jpg,4,0,4,0,0,0,0,0,0,3,3,3,,,,,0,0,0,1,,,,,,,,484.7166147000007,479.2358142000012,480.1310673000007,0.8952530999995361,right,0,None,-34,57:43,-2,0.8666368999984115,,,,,,,,,,,,,Rachel,1 - without skip,"57:43, 54:46","1.5s, 1.0s",2023-07-20_16h26.29.600,Rewa's Exp,2023.1.2,60.05883363350552,
Countdown_1.5s.mp4,red,"[-1.0, 1.0, -1.0]",right,Countdown_1.5s.jpg,4,0,4,0,0,0,0,0,1,0,4,0,,,,,0,0,0,1,,,,,,,,489.51822189999984,484.0373789000005,485.28080600000067,1.24342710000019,right,1,None,-33,57:43,1,1.2188238999988243,,,,,,,,,,,,,Rachel,1 - without skip,"57:43, 54:46","1.5s, 1.0s",2023-07-20_16h26.29.600,Rewa's Exp,2023.1.2,60.05883363350552,
Countdown_1s.mp4,red,"[-1.0, 1.0, -1.0]",right,Countdown_1s.jpg,4,0,4,0,0,0,0,0,1,1,5,1,,,,,0,0,0,1,,,,,,,,494.66747770000075,489.1866390000014,490.1644105000014,0.9777715000000171,None,0,None,-35,57:43,-2,,,,,,,,,,,,,,Rachel,1 - without skip,"57:43, 54:46","1.5s, 1.0s",2023-07-20_16h26.29.600,Rewa's Exp,2023.1.2,60.05883363350552,
Countdown_1s.mp4,"[-1.0, 1.0, -1.0]",red,left,Countdown_1s.jpg,4,0,4,0,0,0,0,0,1,2,6,3,,,,,0,0,0,1,,,,,,,,499.54061809999985,494.0598424,494.9312140000002,0.8713716000002023,left,1,None,-34,57:43,1,0.851850299999569,,,,,,,,,,,,,Rachel,1 - without skip,"57:43, 54:46","1.5s, 1.0s",2023-07-20_16h26.29.600,Rewa's Exp,2023.1.2,60.05883363350552,
Countdown_1.5s.mp4,"[-1.0, 1.0, -1.0]",red,left,Countdown_1.5s.jpg,4,0,4,0,0,0,0,0,1,3,7,2,,,,,0,0,0,1,,,,,,,,504.35397300000113,498.8731607000009,499.7643110000008,0.8911502999999357,left,1,None,-33,57:43,1,0.8617428999987169,,,,,,,,,,,,,Rachel,1 - without skip,"57:43, 54:46","1.5s, 1.0s",2023-07-20_16h26.29.600,Rewa's Exp,2023.1.2,60.05883363350552,
Countdown_1s.mp4,"[-1.0, 1.0, -1.0]",red,left,Countdown_1s.jpg,4,0,4,0,0,0,0,0,,,,,0,0,0,3,0,0,0,1,,,,,,,,,503.6732243000006,504.4140952000016,0.7408709000010276,,,,-32,54:46,1,,left,1,0.7179931999999098,None,,,,,,,,,Rachel,1 - without skip,"57:43, 54:46","1.5s, 1.0s",2023-07-20_16h26.29.600,Rewa's Exp,2023.1.2,60.05883363350552,
Countdown_1s.mp4,red,"[-1.0, 1.0, -1.0]",right,Countdown_1s.jpg,4,0,4,0,0,0,0,0,,,,,0,1,1,1,0,0,0,1,,,,,,,,,508.3058656000012,509.28120410000156,0.9753385000003618,,,,-34,54:46,-2,,None,0,,None,,,,,,,,,Rachel,1 - without skip,"57:43, 54:46","1.5s, 1.0s",2023-07-20_16h26.29.600,Rewa's Exp,2023.1.2,60.05883363350552,
Countdown_1.5s.mp4,red,"[-1.0, 1.0, -1.0]",right,Countdown_1.5s.jpg,4,0,4,0,0,0,0,0,,,,,0,2,2,0,0,0,0,1,,,,,,,,,513.1751882000008,514.1644382000013,0.9892500000005384,,,,-36,54:46,-2,,left,0,0.959832099997584,None,,,,,,,,,Rachel,1 - without skip,"57:43, 54:46","1.5s, 1.0s",2023-07-20_16h26.29.600,Rewa's Exp,2023.1.2,60.05883363350552,
Countdown_1.5s.mp4,"[-1.0, 1.0, -1.0]",red,left,Countdown_1.5s.jpg,4,0,4,0,0,0,0,0,,,,,0,3,3,2,0,0,0,1,,,,,,,,,518.0897522000014,518.7477357000007,0.6579834999993182,,,,-35,54:46,1,,left,1,0.6296700999992026,None,,,,,,,,,Rachel,1 - without skip,"57:43, 54:46","1.5s, 1.0s",2023-07-20_16h26.29.600,Rewa's Exp,2023.1.2,60.05883363350552,
Countdown_1.5s.mp4,red,"[-1.0, 1.0, -1.0]",right,Countdown_1.5s.jpg,4,0,4,0,0,0,0,0,,,,,1,0,4,0,0,0,0,1,,,,,,,,,522.6574636000005,523.6310106000001,0.9735469999995985,,,,-37,54:46,-2,,left,0,0.9410410000000411,None,,,,,,,,,Rachel,1 - without skip,"57:43, 54:46","1.5s, 1.0s",2023-07-20_16h26.29.600,Rewa's Exp,2023.1.2,60.05883363350552,
Countdown_1.5s.mp4,"[-1.0, 1.0, -1.0]",red,left,Countdown_1.5s.jpg,4,0,4,0,0,0,0,0,,,,,1,1,5,2,0,0,0,1,,,,,,,,,527.5783992000015,528.4978599000005,0.9194606999990356,,,,-39,54:46,-2,,right,0,0.9018799999994371,None,,,,,,,,,Rachel,1 - without skip,"57:43, 54:46","1.5s, 1.0s",2023-07-20_16h26.29.600,Rewa's Exp,2023.1.2,60.05883363350552,
Countdown_1s.mp4,"[-1.0, 1.0, -1.0]",red,left,Countdown_1s.jpg,4,0,4,0,0,0,0,0,,,,,1,2,6,3,0,0,0,1,,,,,,,,,532.4074257000011,533.1311034000009,0.7236776999998256,,,,-38,54:46,1,,left,1,0.6955570999980409,None,,,,,,,,,Rachel,1 - without skip,"57:43, 54:46","1.5s, 1.0s",2023-07-20_16h26.29.600,Rewa's Exp,2023.1.2,60.05883363350552,
Countdown_1s.mp4,red,"[-1.0, 1.0, -1.0]",right,Countdown_1s.jpg,4,0,4,0,0,0,0,0,,,,,1,3,7,1,0,0,0,1,,,,,,,,,537.0431957000001,538.0144540000001,0.971258300000045,,,,-37,54:46,1,,right,1,0.9393587999984447,None,,,,,,,,,Rachel,1 - without skip,"57:43, 54:46","1.5s, 1.0s",2023-07-20_16h26.29.600,Rewa's Exp,2023.1.2,60.05883363350552,
Countdown_1.5s.mp4,red,"[-1.0, 1.0, -1.0]",right,Countdown_1.5s.jpg,4,0,4,0,0,0,0,0,,,,,,,,,0,0,0,0,,,,,,,,,,,,,,,,,,,,,,,544.6349254000015,544.6349254000015,544.6349254000015,544.6349254000015,space,34.63655809999909,,,Rachel,1 - without skip,"57:43, 54:46","1.5s, 1.0s",2023-07-20_16h26.29.600,Rewa's Exp,2023.1.2,60.05883363350552,
Countdown_1.5s.mp4,red,"[-1.0, 1.0, -1.0]",right,Countdown_1.5s.jpg,5,0,5,0,0,0,0,3,0,0,0,0,,,,,0,0,0,0,,,,,,,,582.0484733000012,576.5676822000005,577.2477063000006,0.6800241000000824,left,0,None,-39,57:43,-2,0.6558650999977544,,,,,,,,,,,,,Rachel,1 - without skip,"57:43, 54:46","1.5s, 1.0s",2023-07-20_16h26.29.600,Rewa's Exp,2023.1.2,60.05883363350552,
Countdown_1.5s.mp4,"[-1.0, 1.0, -1.0]",red,left,Countdown_1.5s.jpg,5,0,5,0,0,0,0,3,0,1,1,2,,,,,0,0,0,0,,,,,,,,586.6594314000013,581.1786370000009,582.0821919000009,0.9035549000000174,left,1,None,-38,57:43,1,0.8772726999977749,,,,,,,,,,,,,Rachel,1 - without skip,"57:43, 54:46","1.5s, 1.0s",2023-07-20_16h26.29.600,Rewa's Exp,2023.1.2,60.05883363350552,
Countdown_1s.mp4,red,"[-1.0, 1.0, -1.0]",right,Countdown_1s.jpg,5,0,5,0,0,0,0,3,0,2,2,1,,,,,0,0,0,0,,,,,,,,591.4600303000007,585.9791941000003,586.7979991000011,0.8188050000007934,right,1,None,-37,57:43,1,0.7877870999982406,,,,,,,,,,,,,Rachel,1 - without skip,"57:43, 54:46","1.5s, 1.0s",2023-07-20_16h26.29.600,Rewa's Exp,2023.1.2,60.05883363350552,
Countdown_1s.mp4,"[-1.0, 1.0, -1.0]",red,left,Countdown_1s.jpg,5,0,5,0,0,0,0,3,0,3,3,3,,,,,0,0,0,0,,,,,,,,596.1694813000013,590.6886281000006,591.3476660000015,0.6590379000008397,left,1,None,-36,57:43,1,0.6307873999976437,,,,,,,,,,,,,Rachel,1 - without skip,"57:43, 54:46","1.5s, 1.0s",2023-07-20_16h26.29.600,Rewa's Exp,2023.1.2,60.05883363350552,
Countdown_1s.mp4,"[-1.0, 1.0, -1.0]",red,left,Countdown_1s.jpg,5,0,5,0,0,0,0,3,1,0,4,3,,,,,0,0,0,0,,,,,,,,600.7145841000001,595.2338169000013,595.9143670000012,0.6805500999998912,left,1,None,-35,57:43,1,0.6625371999998606,,,,,,,,,,,,,Rachel,1 - without skip,"57:43, 54:46","1.5s, 1.0s",2023-07-20_16h26.29.600,Rewa's Exp,2023.1.2,60.05883363350552,
Countdown_1s.mp4,red,"[-1.0, 1.0, -1.0]",right,Countdown_1s.jpg,5,0,5,0,0,0,0,3,1,1,5,1,,,,,0,0,0,0,,,,,,,,605.3228640000016,599.8420946000006,600.5812526999998,0.7391580999992584,right,1,None,-34,57:43,1,0.7085518999992928,,,,,,,,,,,,,Rachel,1 - without skip,"57:43, 54:46","1.5s, 1.0s",2023-07-20_16h26.29.600,Rewa's Exp,2023.1.2,60.05883363350552,
Countdown_1.5s.mp4,"[-1.0, 1.0, -1.0]",red,left,Countdown_1.5s.jpg,5,0,5,0,0,0,0,3,1,2,6,2,,,,,0,0,0,0,,,,,,,,609.9636349000011,604.4827596000014,605.1156672000016,0.6329076000001805,left,1,None,-33,57:43,1,0.614040999998906,,,,,,,,,,,,,Rachel,1 - without skip,"57:43, 54:46","1.5s, 1.0s",2023-07-20_16h26.29.600,Rewa's Exp,2023.1.2,60.05883363350552,
Countdown_1.5s.mp4,red,"[-1.0, 1.0, -1.0]",right,Countdown_1.5s.jpg,5,0,5,0,0,0,0,3,1,3,7,0,,,,,0,0,0,0,,,,,,,,614.5659552000016,609.0851698000006,609.9811654000005,0.8959955999998783,right,1,None,-32,57:43,1,0.8658417999977246,,,,,,,,,,,,,Rachel,1 - without skip,"57:43, 54:46","1.5s, 1.0s",2023-07-20_16h26.29.600,Rewa's Exp,2023.1.2,60.05883363350552,
Countdown_1.5s.mp4,"[-1.0, 1.0, -1.0]",red,left,Countdown_1.5s.jpg,5,0,5,0,0,0,0,3,,,,,0,0,0,2,0,0,0,0,,,,,,,,,613.884384500001,614.6316741999999,0.7472896999988734,,,,-31,54:46,1,,left,1,0.7146988999975292,None,,,,,,,,,Rachel,1 - without skip,"57:43, 54:46","1.5s, 1.0s",2023-07-20_16h26.29.600,Rewa's Exp,2023.1.2,60.05883363350552,
Countdown_1.5s.mp4,red,"[-1.0, 1.0, -1.0]",right,Countdown_1.5s.jpg,5,0,5,0,0,0,0,3,,,,,0,1,1,0,0,0,0,0,,,,,,,,,618.5623403999998,619.3981911999999,0.8358508000001166,,,,-30,54:46,1,,right,1,0.8047382999993715,None,,,,,,,,,Rachel,1 - without skip,"57:43, 54:46","1.5s, 1.0s",2023-07-20_16h26.29.600,Rewa's Exp,2023.1.2,60.05883363350552,
Countdown_1s.mp4,red,"[-1.0, 1.0, -1.0]",right,Countdown_1s.jpg,5,0,5,0,0,0,0,3,,,,,0,2,2,1,0,0,0,0,,,,,,,,,623.3763550000003,624.3478896000015,0.9715346000011778,,,,-32,54:46,-2,,left,0,0.9670881999991252,None,,,,,,,,,Rachel,1 - without skip,"57:43, 54:46","1.5s, 1.0s",2023-07-20_16h26.29.600,Rewa's Exp,2023.1.2,60.05883363350552,
Countdown_1s.mp4,"[-1.0, 1.0, -1.0]",red,left,Countdown_1s.jpg,5,0,5,0,0,0,0,3,,,,,0,3,3,3,0,0,0,0,,,,,,,,,628.2615768000014,628.8812350000007,0.6196581999993214,,,,-31,54:46,1,,left,1,0.5940396999994846,None,,,,,,,,,Rachel,1 - without skip,"57:43, 54:46","1.5s, 1.0s",2023-07-20_16h26.29.600,Rewa's Exp,2023.1.2,60.05883363350552,
Countdown_1s.mp4,red,"[-1.0, 1.0, -1.0]",right,Countdown_1s.jpg,5,0,5,0,0,0,0,3,,,,,1,0,4,1,0,0,0,0,,,,,,,,,632.7808140000016,633.5561460000008,0.7753319999992527,,,,-30,54:46,1,,right,1,0.7542129999983445,None,,,,,,,,,Rachel,1 - without skip,"57:43, 54:46","1.5s, 1.0s",2023-07-20_16h26.29.600,Rewa's Exp,2023.1.2,60.05883363350552,
Countdown_1.5s.mp4,"[-1.0, 1.0, -1.0]",red,left,Countdown_1.5s.jpg,5,0,5,0,0,0,0,3,,,,,1,1,5,2,0,0,0,0,,,,,,,,,637.4654618000004,638.1814696000001,0.7160077999997156,,,,-29,54:46,1,,left,1,0.6856775999985985,None,,,,,,,,,Rachel,1 - without skip,"57:43, 54:46","1.5s, 1.0s",2023-07-20_16h26.29.600,Rewa's Exp,2023.1.2,60.05883363350552,
Countdown_1s.mp4,"[-1.0, 1.0, -1.0]",red,left,Countdown_1s.jpg,5,0,5,0,0,0,0,3,,,,,1,2,6,3,0,0,0,0,,,,,,,,,642.1516045000008,642.9647281000016,0.8131236000008357,,,,-31,54:46,-2,,right,0,0.7914867999988928,None,,,,,,,,,Rachel,1 - without skip,"57:43, 54:46","1.5s, 1.0s",2023-07-20_16h26.29.600,Rewa's Exp,2023.1.2,60.05883363350552,
Countdown_1.5s.mp4,red,"[-1.0, 1.0, -1.0]",right,Countdown_1.5s.jpg,5,0,5,0,0,0,0,3,,,,,1,3,7,0,0,0,0,0,,,,,,,,,646.9179249000008,647.6979179000009,0.7799930000001041,,,,-33,54:46,-2,,left,0,0.7625779999980296,None,,,,,,,,,Rachel,1 - without skip,"57:43, 54:46","1.5s, 1.0s",2023-07-20_16h26.29.600,Rewa's Exp,2023.1.2,60.05883363350552,
Countdown_1.5s.mp4,"[-1.0, 1.0, -1.0]",red,left,Countdown_1.5s.jpg,5,0,5,0,0,0,0,3,,,,,,,,,0,0,0,2,,,,,,,,,,,,,,,,,,,,,,,654.3098848999998,654.3098848999998,654.3098848999998,654.3098848999998,space,4.8498491999980615,,,Rachel,1 - without skip,"57:43, 54:46","1.5s, 1.0s",2023-07-20_16h26.29.600,Rewa's Exp,2023.1.2,60.05883363350552,
Countdown_1s.mp4,red,"[-1.0, 1.0, -1.0]",right,Countdown_1s.jpg,6,0,6,0,0,0,0,0,0,0,0,1,,,,,0,0,0,2,,,,,,,,661.9747732000014,656.4939322999999,657.3313514000001,0.8374191000002611,right,1,None,-32,57:43,1,0.8183747999974003,,,,,,,,,,,,,Rachel,1 - without skip,"57:43, 54:46","1.5s, 1.0s",2023-07-20_16h26.29.600,Rewa's Exp,2023.1.2,60.05883363350552,
Countdown_1.5s.mp4,"[-1.0, 1.0, -1.0]",red,left,Countdown_1.5s.jpg,6,0,6,0,0,0,0,0,0,1,1,2,,,,,0,0,0,2,,,,,,,,666.7570694000005,661.2763060000016,662.1486295000013,0.8723234999997658,left,1,None,-31,57:43,1,0.8430246999996598,,,,,,,,,,,,,Rachel,1 - without skip,"57:43, 54:46","1.5s, 1.0s",2023-07-20_16h26.29.600,Rewa's Exp,2023.1.2,60.05883363350552,
Countdown_1.5s.mp4,red,"[-1.0, 1.0, -1.0]",right,Countdown_1.5s.jpg,6,0,6,0,0,0,0,0,0,2,2,0,,,,,0,0,0,2,,,,,,,,671.5519386000014,666.071206300001,666.931446300001,0.8602399999999761,right,1,None,-30,57:43,1,0.8411278999992646,,,,,,,,,,,,,Rachel,1 - without skip,"57:43, 54:46","1.5s, 1.0s",2023-07-20_16h26.29.600,Rewa's Exp,2023.1.2,60.05883363350552,
Countdown_1s.mp4,"[-1.0, 1.0, -1.0]",red,left,Countdown_1s.jpg,6,0,6,0,0,0,0,0,0,3,3,3,,,,,0,0,0,2,,,,,,,,676.3080566000008,670.8273661000003,671.581666,0.7542998999997508,left,1,None,-29,57:43,1,0.7324474999986705,,,,,,,,,,,,,Rachel,1 - without skip,"57:43, 54:46","1.5s, 1.0s",2023-07-20_16h26.29.600,Rewa's Exp,2023.1.2,60.05883363350552,
Countdown_1s.mp4,red,"[-1.0, 1.0, -1.0]",right,Countdown_1s.jpg,6,0,6,0,0,0,0,0,1,0,4,1,,,,,0,0,0,2,,,,,,,,681.0309293000009,675.5501185000012,676.2981862000015,0.7480677000003197,right,1,None,-28,57:43,1,0.7225589999980002,,,,,,,,,,,,,Rachel,1 - without skip,"57:43, 54:46","1.5s, 1.0s",2023-07-20_16h26.29.600,Rewa's Exp,2023.1.2,60.05883363350552,
Countdown_1.5s.mp4,red,"[-1.0, 1.0, -1.0]",right,Countdown_1.5s.jpg,6,0,6,0,0,0,0,0,1,1,5,0,,,,,0,0,0,2,,,,,,,,685.7111843000002,680.2304111000012,681.0479771999999,0.8175660999986576,left,0,None,-30,57:43,-2,0.7849268999998458,,,,,,,,,,,,,Rachel,1 - without skip,"57:43, 54:46","1.5s, 1.0s",2023-07-20_16h26.29.600,Rewa's Exp,2023.1.2,60.05883363350552,
Countdown_1s.mp4,"[-1.0, 1.0, -1.0]",red,left,Countdown_1s.jpg,6,0,6,0,0,0,0,0,1,2,6,3,,,,,0,0,0,2,,,,,,,,690.4302432000004,684.9494039000001,685.6648087000012,0.7154048000011244,left,1,None,-29,57:43,1,0.6900388999983988,,,,,,,,,,,,,Rachel,1 - without skip,"57:43, 54:46","1.5s, 1.0s",2023-07-20_16h26.29.600,Rewa's Exp,2023.1.2,60.05883363350552,
Countdown_1.5s.mp4,"[-1.0, 1.0, -1.0]",red,left,Countdown_1.5s.jpg,6,0,6,0,0,0,0,0,1,3,7,2,,,,,0,0,0,2,,,,,,,,695.1081582000006,689.6272247000015,690.4313160000002,0.8040912999986176,left,1,None,-28,57:43,1,0.7717206999986956,,,,,,,,,,,,,Rachel,1 - without skip,"57:43, 54:46","1.5s, 1.0s",2023-07-20_16h26.29.600,Rewa's Exp,2023.1.2,60.05883363350552,
Countdown_1.5s.mp4,"[-1.0, 1.0, -1.0]",red,left,Countdown_1.5s.jpg,6,0,6,0,0,0,0,0,,,,,0,0,0,2,0,0,0,2,,,,,,,,,694.3747192999999,695.3146084,0.9398891000000731,,,,-27,54:46,1,,left,1,0.9130876999988686,None,,,,,,,,,Rachel,1 - without skip,"57:43, 54:46","1.5s, 1.0s",2023-07-20_16h26.29.600,Rewa's Exp,2023.1.2,60.05883363350552,
Countdown_1s.mp4,"[-1.0, 1.0, -1.0]",red,left,Countdown_1s.jpg,6,0,6,0,0,0,0,0,,,,,0,1,1,3,0,0,0,2,,,,,,,,,699.2277494999998,699.8313684000004,0.6036189000005834,,,,-26,54:46,1,,left,1,0.57907460000024,None,,,,,,,,,Rachel,1 - without skip,"57:43, 54:46","1.5s, 1.0s",2023-07-20_16h26.29.600,Rewa's Exp,2023.1.2,60.05883363350552,
Countdown_1s.mp4,red,"[-1.0, 1.0, -1.0]",right,Countdown_1s.jpg,6,0,6,0,0,0,0,0,,,,,0,2,2,1,0,0,0,2,,,,,,,,,703.7492655000005,704.5147213,0.7654557999994722,,,,-25,54:46,1,,right,1,0.7471748999978445,None,,,,,,,,,Rachel,1 - without skip,"57:43, 54:46","1.5s, 1.0s",2023-07-20_16h26.29.600,Rewa's Exp,2023.1.2,60.05883363350552,
Countdown_1.5s.mp4,red,"[-1.0, 1.0, -1.0]",right,Countdown_1.5s.jpg,6,0,6,0,0,0,0,0,,,,,0,3,3,0,0,0,0,2,,,,,,,,,708.4232412000001,709.2153112000015,0.7920700000013312,,,,-27,54:46,-2,,left,0,0.7598620999997365,None,,,,,,,,,Rachel,1 - without skip,"57:43, 54:46","1.5s, 1.0s",2023-07-20_16h26.29.600,Rewa's Exp,2023.1.2,60.05883363350552,
Countdown_1s.mp4,red,"[-1.0, 1.0, -1.0]",right,Countdown_1s.jpg,6,0,6,0,0,0,0,0,,,,,1,0,4,1,0,0,0,2,,,,,,,,,713.1430484000011,713.8480173000007,0.7049688999995851,,,,-26,54:46,1,,right,1,0.6811467999978049,None,,,,,,,,,Rachel,1 - without skip,"57:43, 54:46","1.5s, 1.0s",2023-07-20_16h26.29.600,Rewa's Exp,2023.1.2,60.05883363350552,
Countdown_1.5s.mp4,"[-1.0, 1.0, -1.0]",red,left,Countdown_1.5s.jpg,6,0,6,0,0,0,0,0,,,,,1,1,5,2,0,0,0,2,,,,,,,,,717.7520023000015,718.8147516000008,1.0627492999992683,,,,-25,54:46,1,,left,1,1.0393276999984664,None,,,,,,,,,Rachel,1 - without skip,"57:43, 54:46","1.5s, 1.0s",2023-07-20_16h26.29.600,Rewa's Exp,2023.1.2,60.05883363350552,
Countdown_1s.mp4,"[-1.0, 1.0, -1.0]",red,left,Countdown_1s.jpg,6,0,6,0,0,0,0,0,,,,,1,2,6,3,0,0,0,2,,,,,,,,,722.7097044000002,723.3980024000011,0.6882980000009411,,,,-27,54:46,-2,,right,0,0.6575929999980872,None,,,,,,,,,Rachel,1 - without skip,"57:43, 54:46","1.5s, 1.0s",2023-07-20_16h26.29.600,Rewa's Exp,2023.1.2,60.05883363350552,
Countdown_1.5s.mp4,red,"[-1.0, 1.0, -1.0]",right,Countdown_1.5s.jpg,6,0,6,0,0,0,0,0,,,,,1,3,7,0,0,0,0,2,,,,,,,,,727.3542934000016,728.4651420000009,1.1108485999993718,,,,-29,54:46,-2,,left,0,1.0773231999974087,None,,,,,,,,,Rachel,1 - without skip,"57:43, 54:46","1.5s, 1.0s",2023-07-20_16h26.29.600,Rewa's Exp,2023.1.2,60.05883363350552,
Countdown_1s.mp4,"[-1.0, 1.0, -1.0]",red,left,Countdown_1s.jpg,6,0,6,0,0,0,0,0,,,,,,,,,0,0,0,3,,,,,,,,,,,,,,,,,,,,,,,735.1055383000003,735.1055383000003,735.1055383000003,735.1055383000003,space,1.7426995999994688,,,Rachel,1 - without skip,"57:43, 54:46","1.5s, 1.0s",2023-07-20_16h26.29.600,Rewa's Exp,2023.1.2,60.05883363350552,
Countdown_1s.mp4,red,"[-1.0, 1.0, -1.0]",right,Countdown_1s.jpg,7,0,7,0,0,0,0,2,0,0,0,1,,,,,0,0,0,3,,,,,,,,739.6520462000008,734.1711734,735.0981529000001,0.9269795000000158,right,1,None,-28,57:43,1,0.9090604999983043,,,,,,,,,,,,,Rachel,1 - without skip,"57:43, 54:46","1.5s, 1.0s",2023-07-20_16h26.29.600,Rewa's Exp,2023.1.2,60.05883363350552,
Countdown_1s.mp4,"[-1.0, 1.0, -1.0]",red,left,Countdown_1s.jpg,7,0,7,0,0,0,0,2,0,1,1,3,,,,,0,0,0,3,,,,,,,,744.492456,739.0115956999998,739.6315577000005,0.6199620000006689,left,1,None,-27,57:43,1,0.5953006999989157,,,,,,,,,,,,,Rachel,1 - without skip,"57:43, 54:46","1.5s, 1.0s",2023-07-20_16h26.29.600,Rewa's Exp,2023.1.2,60.05883363350552,
Countdown_1.5s.mp4,"[-1.0, 1.0, -1.0]",red,left,Countdown_1.5s.jpg,7,0,7,0,0,0,0,2,0,2,2,2,,,,,0,0,0,3,,,,,,,,749.0197754000001,743.5390153000008,744.4648846,0.925869299999249,right,0,None,-29,57:43,-2,0.8927207999986422,,,,,,,,,,,,,Rachel,1 - without skip,"57:43, 54:46","1.5s, 1.0s",2023-07-20_16h26.29.600,Rewa's Exp,2023.1.2,60.05883363350552,
Countdown_1.5s.mp4,red,"[-1.0, 1.0, -1.0]",right,Countdown_1.5s.jpg,7,0,7,0,0,0,0,2,0,3,3,0,,,,,0,0,0,3,,,,,,,,753.8539699000012,748.3733300000004,749.4479528000011,1.074622800000725,right,1,None,-28,57:43,1,1.0427327999987028,,,,,,,,,,,,,Rachel,1 - without skip,"57:43, 54:46","1.5s, 1.0s",2023-07-20_16h26.29.600,Rewa's Exp,2023.1.2,60.05883363350552,
Countdown_1s.mp4,"[-1.0, 1.0, -1.0]",red,left,Countdown_1s.jpg,7,0,7,0,0,0,0,2,1,0,4,3,,,,,0,0,0,3,,,,,,,,758.8955119000002,753.4157307000005,754.0317785000007,0.6160478000001604,left,1,None,-27,57:43,1,0.593682999997327,,,,,,,,,,,,,Rachel,1 - without skip,"57:43, 54:46","1.5s, 1.0s",2023-07-20_16h26.29.600,Rewa's Exp,2023.1.2,60.05883363350552,
Countdown_1s.mp4,red,"[-1.0, 1.0, -1.0]",right,Countdown_1s.jpg,7,0,7,0,0,0,0,2,1,1,5,1,,,,,0,0,0,3,,,,,,,,763.4034627000001,757.9226449000016,758.6736349000003,0.7509899999986374,right,1,None,-26,57:43,1,0.7004139999990002,,,,,,,,,,,,,Rachel,1 - without skip,"57:43, 54:46","1.5s, 1.0s",2023-07-20_16h26.29.600,Rewa's Exp,2023.1.2,60.05883363350552,
Countdown_1.5s.mp4,"[-1.0, 1.0, -1.0]",red,left,Countdown_1.5s.jpg,7,0,7,0,0,0,0,2,1,2,6,2,,,,,0,0,0,3,,,,,,,,768.0747953999999,762.5940653000016,763.2315931000012,0.6375277999995888,left,1,None,-25,57:43,1,0.6051223999984359,,,,,,,,,,,,,Rachel,1 - without skip,"57:43, 54:46","1.5s, 1.0s",2023-07-20_16h26.29.600,Rewa's Exp,2023.1.2,60.05883363350552,
Countdown_1.5s.mp4,red,"[-1.0, 1.0, -1.0]",right,Countdown_1.5s.jpg,7,0,7,0,0,0,0,2,1,3,7,0,,,,,0,0,0,3,,,,,,,,772.6447579000014,767.1639653000002,767.8482819000001,0.6843165999998746,right,1,None,-24,57:43,1,0.6602777999996761,,,,,,,,,,,,,Rachel,1 - without skip,"57:43, 54:46","1.5s, 1.0s",2023-07-20_16h26.29.600,Rewa's Exp,2023.1.2,60.05883363350552,
Countdown_1s.mp4,red,"[-1.0, 1.0, -1.0]",right,Countdown_1s.jpg,7,0,7,0,0,0,0,2,,,,,0,0,0,1,0,0,0,3,,,,,,,,,771.7771236000008,772.5315535999998,0.7544299999990471,,,,-23,54:46,1,,right,1,0.7343008999996528,None,,,,,,,,,Rachel,1 - without skip,"57:43, 54:46","1.5s, 1.0s",2023-07-20_16h26.29.600,Rewa's Exp,2023.1.2,60.05883363350552,
Countdown_1s.mp4,"[-1.0, 1.0, -1.0]",red,left,Countdown_1s.jpg,7,0,7,0,0,0,0,2,,,,,0,1,1,3,0,0,0,3,,,,,,,,,776.4922483999999,777.1653450000013,0.6730966000013723,,,,-25,54:46,-2,,right,0,0.651874899998802,None,,,,,,,,,Rachel,1 - without skip,"57:43, 54:46","1.5s, 1.0s",2023-07-20_16h26.29.600,Rewa's Exp,2023.1.2,60.05883363350552,
Countdown_1.5s.mp4,"[-1.0, 1.0, -1.0]",red,left,Countdown_1.5s.jpg,7,0,7,0,0,0,0,2,,,,,0,2,2,2,0,0,0,3,,,,,,,,,781.1233132000016,781.8150265000004,0.6917132999988098,,,,-24,54:46,1,,left,1,0.6688046999988728,None,,,,,,,,,Rachel,1 - without skip,"57:43, 54:46","1.5s, 1.0s",2023-07-20_16h26.29.600,Rewa's Exp,2023.1.2,60.05883363350552,
Countdown_1.5s.mp4,red,"[-1.0, 1.0, -1.0]",right,Countdown_1.5s.jpg,7,0,7,0,0,0,0,2,,,,,0,3,3,0,0,0,0,3,,,,,,,,,785.7608386000011,786.531604400001,0.7707657999999356,,,,-23,54:46,1,,right,1,0.750842499999635,None,,,,,,,,,Rachel,1 - without skip,"57:43, 54:46","1.5s, 1.0s",2023-07-20_16h26.29.600,Rewa's Exp,2023.1.2,60.05883363350552,
Countdown_1s.mp4,"[-1.0, 1.0, -1.0]",red,left,Countdown_1s.jpg,7,0,7,0,0,0,0,2,,,,,1,0,4,3,0,0,0,3,,,,,,,,,790.4915150000015,791.0486292000005,0.5571141999989777,,,,-22,54:46,1,,left,1,0.5316358999989461,None,,,,,,,,,Rachel,1 - without skip,"57:43, 54:46","1.5s, 1.0s",2023-07-20_16h26.29.600,Rewa's Exp,2023.1.2,60.05883363350552,
Countdown_1s.mp4,red,"[-1.0, 1.0, -1.0]",right,Countdown_1s.jpg,7,0,7,0,0,0,0,2,,,,,1,1,5,1,0,0,0,3,,,,,,,,,794.9687215000013,795.6317698000003,0.6630482999989908,,,,-21,54:46,1,,right,1,0.6311898000003566,None,,,,,,,,,Rachel,1 - without skip,"57:43, 54:46","1.5s, 1.0s",2023-07-20_16h26.29.600,Rewa's Exp,2023.1.2,60.05883363350552,
Countdown_1.5s.mp4,red,"[-1.0, 1.0, -1.0]",right,Countdown_1.5s.jpg,7,0,7,0,0,0,0,2,,,,,1,2,6,0,0,0,0,3,,,,,,,,,799.5246330000009,800.3649356000005,0.8403025999996316,,,,-23,54:46,-2,,left,0,0.8109904999982973,None,,,,,,,,,Rachel,1 - without skip,"57:43, 54:46","1.5s, 1.0s",2023-07-20_16h26.29.600,Rewa's Exp,2023.1.2,60.05883363350552,
Countdown_1.5s.mp4,"[-1.0, 1.0, -1.0]",red,left,Countdown_1.5s.jpg,7,0,7,0,0,0,0,2,,,,,1,3,7,2,0,0,0,3,,,,,,,,,804.2859100000005,805.3480689000007,1.0621589000002132,,,,-25,54:46,-2,,right,0,1.0418332999997801,None,,,,,,,,,Rachel,1 - without skip,"57:43, 54:46","1.5s, 1.0s",2023-07-20_16h26.29.600,Rewa's Exp,2023.1.2,60.05883363350552,
Countdown_1s.mp4,"[-1.0, 1.0, -1.0]",red,left,Countdown_1s.jpg,7,0,7,0,0,0,0,2,,,,,,,,,0,0,0,3,,,,,,,,,,,,,,,,,,,,,,,811.9731747000005,811.9731747000005,811.9731747000005,811.9731747000005,space,23.755008399999497,,,Rachel,1 - without skip,"57:43, 54:46","1.5s, 1.0s",2023-07-20_16h26.29.600,Rewa's Exp,2023.1.2,60.05883363350552,
Countdown_1.5s.mp4,red,"[-1.0, 1.0, -1.0]",right,Countdown_1.5s.jpg,8,0,8,0,0,0,0,2,0,0,0,0,,,,,0,0,0,3,,,,,,,,838.5311490000004,833.0502430000015,833.9148347999999,0.8645917999983794,right,1,None,-24,57:43,1,0.8374060999994981,,,,,,,,,,,,,Rachel,1 - without skip,"57:43, 54:46","1.5s, 1.0s",2023-07-20_16h26.29.600,Rewa's Exp,2023.1.2,60.05883363350552,
Countdown_1s.mp4,"[-1.0, 1.0, -1.0]",red,left,Countdown_1s.jpg,8,0,8,0,0,0,0,2,0,1,1,3,,,,,0,0,0,3,,,,,,,,843.3021964,837.8214005000009,838.6817595000011,0.8603590000002441,right,0,None,-26,57:43,-2,0.8335433999982342,,,,,,,,,,,,,Rachel,1 - without skip,"57:43, 54:46","1.5s, 1.0s",2023-07-20_16h26.29.600,Rewa's Exp,2023.1.2,60.05883363350552,
Countdown_1.5s.mp4,"[-1.0, 1.0, -1.0]",red,left,Countdown_1.5s.jpg,8,0,8,0,0,0,0,2,0,2,2,2,,,,,0,0,0,3,,,,,,,,848.0644036000012,842.5836410000011,843.3479969,0.7643558999989182,left,1,None,-25,57:43,1,0.744171299998925,,,,,,,,,,,,,Rachel,1 - without skip,"57:43, 54:46","1.5s, 1.0s",2023-07-20_16h26.29.600,Rewa's Exp,2023.1.2,60.05883363350552,
Countdown_1s.mp4,red,"[-1.0, 1.0, -1.0]",right,Countdown_1s.jpg,8,0,8,0,0,0,0,2,0,3,3,1,,,,,0,0,0,3,,,,,,,,852.744766400001,847.2639212000013,847.9817483000006,0.7178270999993401,right,1,None,-24,57:43,1,0.6874183999971137,,,,,,,,,,,,,Rachel,1 - without skip,"57:43, 54:46","1.5s, 1.0s",2023-07-20_16h26.29.600,Rewa's Exp,2023.1.2,60.05883363350552,
Countdown_1s.mp4,red,"[-1.0, 1.0, -1.0]",right,Countdown_1s.jpg,8,0,8,0,0,0,0,2,1,0,4,1,,,,,0,0,0,3,,,,,,,,857.3741906000014,851.8932443000012,852.4651780000004,0.5719336999991356,left,0,None,-26,57:43,-2,0.5539679999983491,,,,,,,,,,,,,Rachel,1 - without skip,"57:43, 54:46","1.5s, 1.0s",2023-07-20_16h26.29.600,Rewa's Exp,2023.1.2,60.05883363350552,
Countdown_1.5s.mp4,red,"[-1.0, 1.0, -1.0]",right,Countdown_1.5s.jpg,8,0,8,0,0,0,0,2,1,1,5,0,,,,,0,0,0,3,,,,,,,,861.8938455000007,856.4131748,857.4148255,1.0016507000000274,left,0,None,-28,57:43,-2,0.9696883999986312,,,,,,,,,,,,,Rachel,1 - without skip,"57:43, 54:46","1.5s, 1.0s",2023-07-20_16h26.29.600,Rewa's Exp,2023.1.2,60.05883363350552,
Countdown_1s.mp4,"[-1.0, 1.0, -1.0]",red,left,Countdown_1s.jpg,8,0,8,0,0,0,0,2,1,2,6,3,,,,,0,0,0,3,,,,,,,,866.823121200001,861.3423768000011,861.9985121999998,0.656135399998675,left,1,None,-27,57:43,1,0.6248764999982086,,,,,,,,,,,,,Rachel,1 - without skip,"57:43, 54:46","1.5s, 1.0s",2023-07-20_16h26.29.600,Rewa's Exp,2023.1.2,60.05883363350552,
Countdown_1.5s.mp4,"[-1.0, 1.0, -1.0]",red,left,Countdown_1.5s.jpg,8,0,8,0,0,0,0,2,1,3,7,2,,,,,0,0,0,3,,,,,,,,871.3743689000003,865.8935247000009,866.8149611000008,0.9214363999999478,right,0,None,-29,57:43,-2,0.8976839999977528,,,,,,,,,,,,,Rachel,1 - without skip,"57:43, 54:46","1.5s, 1.0s",2023-07-20_16h26.29.600,Rewa's Exp,2023.1.2,60.05883363350552,
Countdown_1.5s.mp4,red,"[-1.0, 1.0, -1.0]",right,Countdown_1.5s.jpg,8,0,8,0,0,0,0,2,,,,,0,0,0,0,0,0,0,3,,,,,,,,,870.7499802000002,871.5819016000005,0.831921400000283,,,,-28,54:46,1,,right,1,0.8109447999995609,None,,,,,,,,,Rachel,1 - without skip,"57:43, 54:46","1.5s, 1.0s",2023-07-20_16h26.29.600,Rewa's Exp,2023.1.2,60.05883363350552,
Countdown_1.5s.mp4,"[-1.0, 1.0, -1.0]",red,left,Countdown_1.5s.jpg,8,0,8,0,0,0,0,2,,,,,0,1,1,2,0,0,0,3,,,,,,,,,875.4915329000014,876.5651173000006,1.073584399999163,,,,-30,54:46,-2,,right,0,1.0452451999990444,None,,,,,,,,,Rachel,1 - without skip,"57:43, 54:46","1.5s, 1.0s",2023-07-20_16h26.29.600,Rewa's Exp,2023.1.2,60.05883363350552,
Countdown_1s.mp4,"[-1.0, 1.0, -1.0]",red,left,Countdown_1s.jpg,8,0,8,0,0,0,0,2,,,,,0,2,2,3,0,0,0,3,,,,,,,,,880.5224070000004,881.115369000001,0.5929620000006253,,,,-29,54:46,1,,left,1,0.5650616999992053,None,,,,,,,,,Rachel,1 - without skip,"57:43, 54:46","1.5s, 1.0s",2023-07-20_16h26.29.600,Rewa's Exp,2023.1.2,60.05883363350552,
Countdown_1s.mp4,red,"[-1.0, 1.0, -1.0]",right,Countdown_1s.jpg,8,0,8,0,0,0,0,2,,,,,0,3,3,1,0,0,0,3,,,,,,,,,885.0892500999998,885.8151859999998,0.7259358999999677,,,,-28,54:46,1,,right,1,0.702485899997555,None,,,,,,,,,Rachel,1 - without skip,"57:43, 54:46","1.5s, 1.0s",2023-07-20_16h26.29.600,Rewa's Exp,2023.1.2,60.05883363350552,
Countdown_1.5s.mp4,red,"[-1.0, 1.0, -1.0]",right,Countdown_1.5s.jpg,8,0,8,0,0,0,0,2,,,,,1,0,4,0,0,0,0,3,,,,,,,,,889.7260542000004,890.6649980000002,0.9389437999998336,,,,-27,54:46,1,,right,1,0.91409289999865,None,,,,,,,,,Rachel,1 - without skip,"57:43, 54:46","1.5s, 1.0s",2023-07-20_16h26.29.600,Rewa's Exp,2023.1.2,60.05883363350552,
Countdown_1s.mp4,red,"[-1.0, 1.0, -1.0]",right,Countdown_1s.jpg,8,0,8,0,0,0,0,2,,,,,1,1,5,1,0,0,0,3,,,,,,,,,894.5661452000004,895.2818002000004,0.7156549999999697,,,,-29,54:46,-2,,left,0,0.6897324999990815,None,,,,,,,,,Rachel,1 - without skip,"57:43, 54:46","1.5s, 1.0s",2023-07-20_16h26.29.600,Rewa's Exp,2023.1.2,60.05883363350552,
Countdown_1.5s.mp4,"[-1.0, 1.0, -1.0]",red,left,Countdown_1.5s.jpg,8,0,8,0,0,0,0,2,,,,,1,2,6,2,0,0,0,3,,,,,,,,,899.2448784000007,899.8484713000016,0.6035929000008764,,,,-28,54:46,1,,left,1,0.5799387999977625,None,,,,,,,,,Rachel,1 - without skip,"57:43, 54:46","1.5s, 1.0s",2023-07-20_16h26.29.600,Rewa's Exp,2023.1.2,60.05883363350552,
Countdown_1s.mp4,"[-1.0, 1.0, -1.0]",red,left,Countdown_1s.jpg,8,0,8,0,0,0,0,2,,,,,1,3,7,3,0,0,0,3,,,,,,,,,903.7878999000004,904.4650621000001,0.6771621999996569,,,,-27,54:46,1,,left,1,0.6516894999986107,None,,,,,,,,,Rachel,1 - without skip,"57:43, 54:46","1.5s, 1.0s",2023-07-20_16h26.29.600,Rewa's Exp,2023.1.2,60.05883363350552,
Countdown_1.5s.mp4,red,"[-1.0, 1.0, -1.0]",right,Countdown_1.5s.jpg,8,0,8,0,0,0,0,2,,,,,,,,,0,0,0,0,,,,,,,,,,,,,,,,,,,,,,,911.1011776000014,911.1011776000014,911.1011776000014,911.1011776000014,space,1.8910008999991987,,,Rachel,1 - without skip,"57:43, 54:46","1.5s, 1.0s",2023-07-20_16h26.29.600,Rewa's Exp,2023.1.2,60.05883363350552,
Countdown_1s.mp4,"[-1.0, 1.0, -1.0]",red,left,Countdown_1s.jpg,9,0,9,0,0,0,0,3,0,0,0,3,,,,,0,0,0,0,,,,,,,,915.7926404000009,910.3118261,910.9649225000012,0.6530964000012318,left,1,None,-26,57:43,1,0.6327894999994896,,,,,,,,,,,,,Rachel,1 - without skip,"57:43, 54:46","1.5s, 1.0s",2023-07-20_16h26.29.600,Rewa's Exp,2023.1.2,60.05883363350552,
Countdown_1s.mp4,red,"[-1.0, 1.0, -1.0]",right,Countdown_1s.jpg,9,0,9,0,0,0,0,3,0,1,1,1,,,,,0,0,0,0,,,,,,,,920.3892904000004,914.9084598000009,915.7151656000005,0.8067057999996905,left,0,None,-28,57:43,-2,0.7784830999989936,,,,,,,,,,,,,Rachel,1 - without skip,"57:43, 54:46","1.5s, 1.0s",2023-07-20_16h26.29.600,Rewa's Exp,2023.1.2,60.05883363350552,
Countdown_1.5s.mp4,"[-1.0, 1.0, -1.0]",red,left,Countdown_1.5s.jpg,9,0,9,0,0,0,0,3,0,2,2,2,,,,,0,0,0,0,,,,,,,,925.1102664999999,919.6294908,920.4650891000001,0.8355983000001288,right,0,None,-30,57:43,-2,0.8030841999989207,,,,,,,,,,,,,Rachel,1 - without skip,"57:43, 54:46","1.5s, 1.0s",2023-07-20_16h26.29.600,Rewa's Exp,2023.1.2,60.05883363350552,
Countdown_1.5s.mp4,red,"[-1.0, 1.0, -1.0]",right,Countdown_1.5s.jpg,9,0,9,0,0,0,0,3,0,3,3,0,,,,,0,0,0,0,,,,,,,,929.9150993000003,924.4353644000003,925.1317353000013,0.6963709000010567,left,0,None,-32,57:43,-2,0.6778764999980922,,,,,,,,,,,,,Rachel,1 - without skip,"57:43, 54:46","1.5s, 1.0s",2023-07-20_16h26.29.600,Rewa's Exp,2023.1.2,60.05883363350552,
Countdown_1.5s.mp4,red,"[-1.0, 1.0, -1.0]",right,Countdown_1.5s.jpg,9,0,9,0,0,0,0,3,1,0,4,0,,,,,0,0,0,0,,,,,,,,934.5251638999998,929.0443259000003,929.9484089000016,0.9040830000012647,right,1,None,-31,57:43,1,0.8840783999985433,,,,,,,,,,,,,Rachel,1 - without skip,"57:43, 54:46","1.5s, 1.0s",2023-07-20_16h26.29.600,Rewa's Exp,2023.1.2,60.05883363350552,
Countdown_1s.mp4,red,"[-1.0, 1.0, -1.0]",right,Countdown_1s.jpg,9,0,9,0,0,0,0,3,1,1,5,1,,,,,0,0,0,0,,,,,,,,939.3348530000003,933.8540182000015,934.6317563000011,0.777738099999624,right,1,None,-30,57:43,1,0.7454815000000963,,,,,,,,,,,,,Rachel,1 - without skip,"57:43, 54:46","1.5s, 1.0s",2023-07-20_16h26.29.600,Rewa's Exp,2023.1.2,60.05883363350552,
Countdown_1s.mp4,"[-1.0, 1.0, -1.0]",red,left,Countdown_1s.jpg,9,0,9,0,0,0,0,3,1,2,6,3,,,,,0,0,0,0,,,,,,,,944.0180434000013,938.5371413000012,939.1983885999998,0.6612472999986494,left,1,None,-29,57:43,1,0.6377577999974164,,,,,,,,,,,,,Rachel,1 - without skip,"57:43, 54:46","1.5s, 1.0s",2023-07-20_16h26.29.600,Rewa's Exp,2023.1.2,60.05883363350552,
Countdown_1.5s.mp4,"[-1.0, 1.0, -1.0]",red,left,Countdown_1.5s.jpg,9,0,9,0,0,0,0,3,1,3,7,2,,,,,0,0,0,0,,,,,,,,948.5728310000013,943.0920683000004,943.8722272000014,0.7801589000009699,left,1,None,-28,57:43,1,0.7471418999975867,,,,,,,,,,,,,Rachel,1 - without skip,"57:43, 54:46","1.5s, 1.0s",2023-07-20_16h26.29.600,Rewa's Exp,2023.1.2,60.05883363350552,
Countdown_1s.mp4,"[-1.0, 1.0, -1.0]",red,left,Countdown_1s.jpg,9,0,9,0,0,0,0,3,,,,,0,0,0,3,0,0,0,0,,,,,,,,,947.8018791000013,948.7652752000013,0.9633960999999545,,,,-30,54:46,-2,,right,0,0.9585349999979371,None,,,,,,,,,Rachel,1 - without skip,"57:43, 54:46","1.5s, 1.0s",2023-07-20_16h26.29.600,Rewa's Exp,2023.1.2,60.05883363350552,
Countdown_1.5s.mp4,"[-1.0, 1.0, -1.0]",red,left,Countdown_1.5s.jpg,9,0,9,0,0,0,0,3,,,,,0,1,1,2,0,0,0,0,,,,,,,,,952.6707663000016,953.7317012000003,1.060934899998756,,,,-32,54:46,-2,,right,0,1.0327746999992087,None,,,,,,,,,Rachel,1 - without skip,"57:43, 54:46","1.5s, 1.0s",2023-07-20_16h26.29.600,Rewa's Exp,2023.1.2,60.05883363350552,
Countdown_1s.mp4,red,"[-1.0, 1.0, -1.0]",right,Countdown_1s.jpg,9,0,9,0,0,0,0,3,,,,,0,2,2,1,0,0,0,0,,,,,,,,,957.6269439000007,958.4159186000015,0.7889747000008356,,,,-34,54:46,-2,,left,0,0.7650567999990017,None,,,,,,,,,Rachel,1 - without skip,"57:43, 54:46","1.5s, 1.0s",2023-07-20_16h26.29.600,Rewa's Exp,2023.1.2,60.05883363350552,
Countdown_1.5s.mp4,red,"[-1.0, 1.0, -1.0]",right,Countdown_1.5s.jpg,9,0,9,0,0,0,0,3,,,,,0,3,3,0,0,0,0,0,,,,,,,,,962.342189500001,963.4650763999998,1.1228868999987753,,,,-36,54:46,-2,,left,0,1.1055280999971728,None,,,,,,,,,Rachel,1 - without skip,"57:43, 54:46","1.5s, 1.0s",2023-07-20_16h26.29.600,Rewa's Exp,2023.1.2,60.05883363350552,
Countdown_1s.mp4,"[-1.0, 1.0, -1.0]",red,left,Countdown_1s.jpg,9,0,9,0,0,0,0,3,,,,,1,0,4,3,0,0,0,0,,,,,,,,,967.3847303000002,968.0318617000012,0.6471314000009443,,,,-35,54:46,1,,left,1,0.6310229999980947,None,,,,,,,,,Rachel,1 - without skip,"57:43, 54:46","1.5s, 1.0s",2023-07-20_16h26.29.600,Rewa's Exp,2023.1.2,60.05883363350552,
Countdown_1.5s.mp4,red,"[-1.0, 1.0, -1.0]",right,Countdown_1.5s.jpg,9,0,9,0,0,0,0,3,,,,,1,1,5,0,0,0,0,0,,,,,,,,,971.9600563000004,972.8486112999999,0.8885549999995419,,,,-34,54:46,1,,right,1,0.8642950999983441,None,,,,,,,,,Rachel,1 - without skip,"57:43, 54:46","1.5s, 1.0s",2023-07-20_16h26.29.600,Rewa's Exp,2023.1.2,60.05883363350552,
Countdown_1s.mp4,red,"[-1.0, 1.0, -1.0]",right,Countdown_1s.jpg,9,0,9,0,0,0,0,3,,,,,1,2,6,1,0,0,0,0,,,,,,,,,976.8217639000013,977.6152813000008,0.7935173999994731,,,,-36,54:46,-2,,left,0,0.7781947999992553,None,,,,,,,,,Rachel,1 - without skip,"57:43, 54:46","1.5s, 1.0s",2023-07-20_16h26.29.600,Rewa's Exp,2023.1.2,60.05883363350552,
Countdown_1.5s.mp4,"[-1.0, 1.0, -1.0]",red,left,Countdown_1.5s.jpg,9,0,9,0,0,0,0,3,,,,,1,3,7,2,0,0,0,0,,,,,,,,,981.5322061000006,982.3988012999998,0.8665951999992103,,,,-38,54:46,-2,,right,0,0.843606099997487,None,,,,,,,,,Rachel,1 - without skip,"57:43, 54:46","1.5s, 1.0s",2023-07-20_16h26.29.600,Rewa's Exp,2023.1.2,60.05883363350552,
Countdown_1.5s.mp4,"[-1.0, 1.0, -1.0]",red,left,Countdown_1.5s.jpg,9,0,9,0,0,0,0,3,,,,,,,,,0,0,0,2,,,,,,,,,,,,,,,,,,,,,,,989.0062690000013,989.0062690000013,989.0062690000013,989.0062690000013,space,1.7631451999986893,,,Rachel,1 - without skip,"57:43, 54:46","1.5s, 1.0s",2023-07-20_16h26.29.600,Rewa's Exp,2023.1.2,60.05883363350552,
Countdown_1.5s.mp4,red,"[-1.0, 1.0, -1.0]",right,Countdown_1.5s.jpg,10,0,10,0,0,0,0,1,0,0,0,0,,,,,0,0,0,2,,,,,,,,993.5794638000007,988.0986900000007,989.1654460000009,1.0667560000001686,right,1,None,-37,57:43,1,1.0370318999976007,,,,,,,,,,,,,Rachel,1 - without skip,"57:43, 54:46","1.5s, 1.0s",2023-07-20_16h26.29.600,Rewa's Exp,2023.1.2,60.05883363350552,
Countdown_1.5s.mp4,"[-1.0, 1.0, -1.0]",red,left,Countdown_1.5s.jpg,10,0,10,0,0,0,0,1,0,1,1,2,,,,,0,0,0,2,,,,,,,,998.5313098000006,993.0505363000011,993.8826384000004,0.832102099999247,right,0,None,-39,57:43,-2,0.813930899998013,,,,,,,,,,,,,Rachel,1 - without skip,"57:43, 54:46","1.5s, 1.0s",2023-07-20_16h26.29.600,Rewa's Exp,2023.1.2,60.05883363350552,
Countdown_1s.mp4,"[-1.0, 1.0, -1.0]",red,left,Countdown_1s.jpg,10,0,10,0,0,0,0,1,0,2,2,3,,,,,0,0,0,2,,,,,,,,1003.2981539000011,997.8173122000007,998.415442200001,0.5981300000003102,left,1,None,-38,57:43,1,0.5663323999979184,,,,,,,,,,,,,Rachel,1 - without skip,"57:43, 54:46","1.5s, 1.0s",2023-07-20_16h26.29.600,Rewa's Exp,2023.1.2,60.05883363350552,
Countdown_1s.mp4,red,"[-1.0, 1.0, -1.0]",right,Countdown_1s.jpg,10,0,10,0,0,0,0,1,0,3,3,1,,,,,0,0,0,2,,,,,,,,1007.8294899000011,1002.3486997,1003.3153199000008,0.9666202000007615,right,1,None,-37,57:43,1,0.9471191999982693,,,,,,,,,,,,,Rachel,1 - without skip,"57:43, 54:46","1.5s, 1.0s",2023-07-20_16h26.29.600,Rewa's Exp,2023.1.2,60.05883363350552,
Countdown_1s.mp4,"[-1.0, 1.0, -1.0]",red,left,Countdown_1s.jpg,10,0,10,0,0,0,0,1,1,0,4,3,,,,,0,0,0,2,,,,,,,,1012.7139203000006,1007.2330778000014,1008.1986407000004,0.9655628999989858,None,0,None,-39,57:43,-2,,,,,,,,,,,,,,Rachel,1 - without skip,"57:43, 54:46","1.5s, 1.0s",2023-07-20_16h26.29.600,Rewa's Exp,2023.1.2,60.05883363350552,
Countdown_1.5s.mp4,red,"[-1.0, 1.0, -1.0]",right,Countdown_1.5s.jpg,10,0,10,0,0,0,0,1,1,1,5,0,,,,,0,0,0,2,,,,,,,,1017.5981143000008,1012.1173524000005,1013.0655565000015,0.9482041000010213,right,1,None,-38,57:43,1,0.9308138999986113,,,,,,,,,,,,,Rachel,1 - without skip,"57:43, 54:46","1.5s, 1.0s",2023-07-20_16h26.29.600,Rewa's Exp,2023.1.2,60.05883363350552,
Countdown_1s.mp4,red,"[-1.0, 1.0, -1.0]",right,Countdown_1s.jpg,10,0,10,0,0,0,0,1,1,2,6,1,,,,,0,0,0,2,,,,,,,,1022.4772056000002,1016.9963787000015,1017.765366900001,0.7689881999995123,left,0,None,-40,57:43,-2,0.7482346999986476,,,,,,,,,,,,,Rachel,1 - without skip,"57:43, 54:46","1.5s, 1.0s",2023-07-20_16h26.29.600,Rewa's Exp,2023.1.2,60.05883363350552,
Countdown_1.5s.mp4,"[-1.0, 1.0, -1.0]",red,left,Countdown_1.5s.jpg,10,0,10,0,0,0,0,1,1,3,7,2,,,,,0,0,0,2,,,,,,,,1027.2009951,1021.7202584000006,1022.3156010000002,0.5953425999996398,left,1,None,-39,57:43,1,0.5681292999979632,,,,,,,,,,,,,Rachel,1 - without skip,"57:43, 54:46","1.5s, 1.0s",2023-07-20_16h26.29.600,Rewa's Exp,2023.1.2,60.05883363350552,
Countdown_1.5s.mp4,red,"[-1.0, 1.0, -1.0]",right,Countdown_1.5s.jpg,10,0,10,0,0,0,0,1,,,,,0,0,0,0,0,0,0,2,,,,,,,,,1026.2509945000002,1027.0987330000007,0.8477385000005597,,,,-38,54:46,1,,right,1,0.8289139999997133,None,,,,,,,,,Rachel,1 - without skip,"57:43, 54:46","1.5s, 1.0s",2023-07-20_16h26.29.600,Rewa's Exp,2023.1.2,60.05883363350552,
Countdown_1s.mp4,"[-1.0, 1.0, -1.0]",red,left,Countdown_1s.jpg,10,0,10,0,0,0,0,1,,,,,0,1,1,3,0,0,0,2,,,,,,,,,1031.0152246000016,1031.5818994,0.5666747999985091,,,,-37,54:46,1,,left,1,0.5361462999971991,None,,,,,,,,,Rachel,1 - without skip,"57:43, 54:46","1.5s, 1.0s",2023-07-20_16h26.29.600,Rewa's Exp,2023.1.2,60.05883363350552,
Countdown_1.5s.mp4,"[-1.0, 1.0, -1.0]",red,left,Countdown_1.5s.jpg,10,0,10,0,0,0,0,1,,,,,0,2,2,2,0,0,0,2,,,,,,,,,1035.4940404000008,1036.1320667,0.6380262999991828,,,,-36,54:46,1,,left,1,0.610218599998916,None,,,,,,,,,Rachel,1 - without skip,"57:43, 54:46","1.5s, 1.0s",2023-07-20_16h26.29.600,Rewa's Exp,2023.1.2,60.05883363350552,
Countdown_1s.mp4,red,"[-1.0, 1.0, -1.0]",right,Countdown_1s.jpg,10,0,10,0,0,0,0,1,,,,,0,3,3,1,0,0,0,2,,,,,,,,,1040.0423010000013,1040.7654673000015,0.72316630000023,,,,-35,54:46,1,,right,1,0.6927182999988872,None,,,,,,,,,Rachel,1 - without skip,"57:43, 54:46","1.5s, 1.0s",2023-07-20_16h26.29.600,Rewa's Exp,2023.1.2,60.05883363350552,
Countdown_1s.mp4,red,"[-1.0, 1.0, -1.0]",right,Countdown_1s.jpg,10,0,10,0,0,0,0,1,,,,,1,0,4,1,0,0,0,2,,,,,,,,,1044.690309900001,1045.5987045000002,0.9083945999991556,,,,-34,54:46,1,,right,1,0.8770851999997831,None,,,,,,,,,Rachel,1 - without skip,"57:43, 54:46","1.5s, 1.0s",2023-07-20_16h26.29.600,Rewa's Exp,2023.1.2,60.05883363350552,
Countdown_1.5s.mp4,red,"[-1.0, 1.0, -1.0]",right,Countdown_1.5s.jpg,10,0,10,0,0,0,0,1,,,,,1,1,5,0,0,0,0,2,,,,,,,,,1049.5354952000016,1050.348885200001,0.8133899999993446,,,,-33,54:46,1,,right,1,0.7843930999988515,None,,,,,,,,,Rachel,1 - without skip,"57:43, 54:46","1.5s, 1.0s",2023-07-20_16h26.29.600,Rewa's Exp,2023.1.2,60.05883363350552,
Countdown_1.5s.mp4,"[-1.0, 1.0, -1.0]",red,left,Countdown_1.5s.jpg,10,0,10,0,0,0,0,1,,,,,1,2,6,2,0,0,0,2,,,,,,,,,1054.2540032000015,1055.1321657000008,0.8781624999992346,,,,-35,54:46,-2,,right,0,0.8500127999977849,None,,,,,,,,,Rachel,1 - without skip,"57:43, 54:46","1.5s, 1.0s",2023-07-20_16h26.29.600,Rewa's Exp,2023.1.2,60.05883363350552,
Countdown_1s.mp4,"[-1.0, 1.0, -1.0]",red,left,Countdown_1s.jpg,10,0,10,0,0,0,0,1,,,,,1,3,7,3,0,0,0,2,,,,,,,,,1059.0526730000001,1059.7821500999999,0.7294770999997127,,,,-34,54:46,1,,left,1,0.6990477999988798,None,,,,,,,,,Rachel,1 - without skip,"57:43, 54:46","1.5s, 1.0s",2023-07-20_16h26.29.600,Rewa's Exp,2023.1.2,60.05883363350552,
Countdown_1.5s.mp4,"[-1.0, 1.0, -1.0]",red,left,Countdown_1.5s.jpg,10,0,10,0,0,0,0,1,,,,,,,,,0,0,0,2,,,,,,,,,,,,,,,,,,,,,,,1066.3971555000007,1066.3971555000007,1066.3971555000007,1066.3971555000007,space,1.8115257999997993,,,Rachel,1 - without skip,"57:43, 54:46","1.5s, 1.0s",2023-07-20_16h26.29.600,Rewa's Exp,2023.1.2,60.05883363350552,
Countdown_1.5s.mp4,red,"[-1.0, 1.0, -1.0]",right,Countdown_1.5s.jpg,11,0,11,0,0,0,0,1,0,0,0,0,,,,,0,0,0,2,,,,,,,,1071.0165863000002,1065.5357504000003,1066.2821214000014,0.7463710000010906,right,1,None,-33,57:43,1,0.7199112999987847,,,,,,,,,,,,,Rachel,1 - without skip,"57:43, 54:46","1.5s, 1.0s",2023-07-20_16h26.29.600,Rewa's Exp,2023.1.2,60.05883363350552,
Countdown_1.5s.mp4,"[-1.0, 1.0, -1.0]",red,left,Countdown_1.5s.jpg,11,0,11,0,0,0,0,1,0,1,1,2,,,,,0,0,0,2,,,,,,,,1075.7097154000003,1070.2289353000015,1071.2154474,0.9865120999984356,right,0,None,-35,57:43,-2,0.9548202999994828,,,,,,,,,,,,,Rachel,1 - without skip,"57:43, 54:46","1.5s, 1.0s",2023-07-20_16h26.29.600,Rewa's Exp,2023.1.2,60.05883363350552,
Countdown_1s.mp4,"[-1.0, 1.0, -1.0]",red,left,Countdown_1s.jpg,11,0,11,0,0,0,0,1,0,2,2,3,,,,,0,0,0,2,,,,,,,,1080.6385686000012,1075.1577871000009,1076.0489889,0.8912017999991804,left,1,None,-34,57:43,1,0.8584979999977804,,,,,,,,,,,,,Rachel,1 - without skip,"57:43, 54:46","1.5s, 1.0s",2023-07-20_16h26.29.600,Rewa's Exp,2023.1.2,60.05883363350552,
Countdown_1s.mp4,red,"[-1.0, 1.0, -1.0]",right,Countdown_1s.jpg,11,0,11,0,0,0,0,1,0,3,3,1,,,,,0,0,0,2,,,,,,,,1085.4830516000002,1080.0021947000005,1080.8323936000015,0.8301989000010508,right,1,None,-33,57:43,1,0.7984286999999313,,,,,,,,,,,,,Rachel,1 - without skip,"57:43, 54:46","1.5s, 1.0s",2023-07-20_16h26.29.600,Rewa's Exp,2023.1.2,60.05883363350552,
Countdown_1.5s.mp4,red,"[-1.0, 1.0, -1.0]",right,Countdown_1.5s.jpg,11,0,11,0,0,0,0,1,1,0,4,0,,,,,0,0,0,2,,,,,,,,1090.2429874000009,1084.7622472000003,1085.4488497000002,0.6866024999999354,left,0,None,-35,57:43,-2,0.6542513999993389,,,,,,,,,,,,,Rachel,1 - without skip,"57:43, 54:46","1.5s, 1.0s",2023-07-20_16h26.29.600,Rewa's Exp,2023.1.2,60.05883363350552,
Countdown_1s.mp4,red,"[-1.0, 1.0, -1.0]",right,Countdown_1s.jpg,11,0,11,0,0,0,0,1,1,1,5,1,,,,,0,0,0,2,,,,,,,,1094.8448206000012,1089.3640018000006,1090.1322398000011,0.7682380000005651,right,1,None,-34,57:43,1,0.7391651999987516,,,,,,,,,,,,,Rachel,1 - without skip,"57:43, 54:46","1.5s, 1.0s",2023-07-20_16h26.29.600,Rewa's Exp,2023.1.2,60.05883363350552,
Countdown_1.5s.mp4,"[-1.0, 1.0, -1.0]",red,left,Countdown_1.5s.jpg,11,0,11,0,0,0,0,1,1,2,6,2,,,,,0,0,0,2,,,,,,,,1099.5678986000003,1094.0871477,1094.8323299000003,0.7451822000002721,left,1,None,-33,57:43,1,0.71986509999806,,,,,,,,,,,,,Rachel,1 - without skip,"57:43, 54:46","1.5s, 1.0s",2023-07-20_16h26.29.600,Rewa's Exp,2023.1.2,60.05883363350552,
Countdown_1s.mp4,"[-1.0, 1.0, -1.0]",red,left,Countdown_1s.jpg,11,0,11,0,0,0,0,1,1,3,7,3,,,,,0,0,0,2,,,,,,,,1104.2099654000012,1098.7292393000007,1099.3491276000004,0.6198882999997295,left,1,None,-32,57:43,1,0.5902915999995457,,,,,,,,,,,,,Rachel,1 - without skip,"57:43, 54:46","1.5s, 1.0s",2023-07-20_16h26.29.600,Rewa's Exp,2023.1.2,60.05883363350552,
Countdown_1.5s.mp4,red,"[-1.0, 1.0, -1.0]",right,Countdown_1.5s.jpg,11,0,11,0,0,0,0,1,,,,,0,0,0,0,0,0,0,2,,,,,,,,,1103.2713005000005,1103.9654372000005,0.6941366999999445,,,,-31,54:46,1,,right,1,0.6728558999984671,None,,,,,,,,,Rachel,1 - without skip,"57:43, 54:46","1.5s, 1.0s",2023-07-20_16h26.29.600,Rewa's Exp,2023.1.2,60.05883363350552,
Countdown_1s.mp4,red,"[-1.0, 1.0, -1.0]",right,Countdown_1s.jpg,11,0,11,0,0,0,0,1,,,,,0,1,1,1,0,0,0,2,,,,,,,,,1107.8527036000014,1108.6825069000006,0.8298032999991847,,,,-30,54:46,1,,right,1,0.8024242999999842,None,,,,,,,,,Rachel,1 - without skip,"57:43, 54:46","1.5s, 1.0s",2023-07-20_16h26.29.600,Rewa's Exp,2023.1.2,60.05883363350552,
Countdown_1s.mp4,"[-1.0, 1.0, -1.0]",red,left,Countdown_1s.jpg,11,0,11,0,0,0,0,1,,,,,0,2,2,3,0,0,0,2,,,,,,,,,1112.6091788000012,1113.3155834000008,0.7064045999995869,,,,-29,54:46,1,,left,1,0.6868744999992487,None,,,,,,,,,Rachel,1 - without skip,"57:43, 54:46","1.5s, 1.0s",2023-07-20_16h26.29.600,Rewa's Exp,2023.1.2,60.05883363350552,
Countdown_1.5s.mp4,"[-1.0, 1.0, -1.0]",red,left,Countdown_1.5s.jpg,11,0,11,0,0,0,0,1,,,,,0,3,3,2,0,0,0,2,,,,,,,,,1117.2709625000007,1118.099073200001,0.8281107000002521,,,,-28,54:46,1,,left,1,0.8105751999992208,None,,,,,,,,,Rachel,1 - without skip,"57:43, 54:46","1.5s, 1.0s",2023-07-20_16h26.29.600,Rewa's Exp,2023.1.2,60.05883363350552,
Countdown_1s.mp4,red,"[-1.0, 1.0, -1.0]",right,Countdown_1s.jpg,11,0,11,0,0,0,0,1,,,,,1,0,4,1,0,0,0,2,,,,,,,,,1122.0141202000013,1122.8324006000003,0.8182803999989119,,,,-27,54:46,1,,right,1,0.8015949999989971,None,,,,,,,,,Rachel,1 - without skip,"57:43, 54:46","1.5s, 1.0s",2023-07-20_16h26.29.600,Rewa's Exp,2023.1.2,60.05883363350552,
Countdown_1.5s.mp4,red,"[-1.0, 1.0, -1.0]",right,Countdown_1.5s.jpg,11,0,11,0,0,0,0,1,,,,,1,1,5,0,0,0,0,2,,,,,,,,,1126.7369216000006,1127.8988249000013,1.1619033000006311,,,,-26,54:46,1,,right,1,1.143922699999166,None,,,,,,,,,Rachel,1 - without skip,"57:43, 54:46","1.5s, 1.0s",2023-07-20_16h26.29.600,Rewa's Exp,2023.1.2,60.05883363350552,
Countdown_1s.mp4,"[-1.0, 1.0, -1.0]",red,left,Countdown_1s.jpg,11,0,11,0,0,0,0,1,,,,,1,2,6,3,0,0,0,2,,,,,,,,,1131.824083900001,1132.4990890000008,0.6750050999999075,,,,-25,54:46,1,,left,1,0.6560209999988729,None,,,,,,,,,Rachel,1 - without skip,"57:43, 54:46","1.5s, 1.0s",2023-07-20_16h26.29.600,Rewa's Exp,2023.1.2,60.05883363350552,
Countdown_1.5s.mp4,"[-1.0, 1.0, -1.0]",red,left,Countdown_1.5s.jpg,11,0,11,0,0,0,0,1,,,,,1,3,7,2,0,0,0,2,,,,,,,,,1136.4715067000016,1137.049008,0.5775012999984028,,,,-24,54:46,1,,left,1,0.5527039999979024,None,,,,,,,,,Rachel,1 - without skip,"57:43, 54:46","1.5s, 1.0s",2023-07-20_16h26.29.600,Rewa's Exp,2023.1.2,60.05883363350552,
Countdown_1.5s.mp4,red,"[-1.0, 1.0, -1.0]",right,Countdown_1.5s.jpg,11,0,11,0,0,0,0,1,,,,,,,,,0,0,0,0,,,,,,,,,,,,,,,,,,,,,,,1143.677580200001,1143.677580200001,1143.677580200001,1143.677580200001,space,1.547910299999785,,,Rachel,1 - without skip,"57:43, 54:46","1.5s, 1.0s",2023-07-20_16h26.29.600,Rewa's Exp,2023.1.2,60.05883363350552,
Countdown_1s.mp4,red,"[-1.0, 1.0, -1.0]",right,Countdown_1s.jpg,12,0,12,0,0,0,0,1,0,0,0,1,,,,,0,0,0,0,,,,,,,,1148.026068700001,1142.5452028,1143.2322017000006,0.6869989000006171,left,0,None,-26,57:43,-2,0.670313199998418,,,,,,,,,,,,,Rachel,1 - without skip,"57:43, 54:46","1.5s, 1.0s",2023-07-20_16h26.29.600,Rewa's Exp,2023.1.2,60.05883363350552,
Countdown_1s.mp4,"[-1.0, 1.0, -1.0]",red,left,Countdown_1s.jpg,12,0,12,0,0,0,0,1,0,1,1,3,,,,,0,0,0,0,,,,,,,,1152.6784957,1147.197745200001,1148.165508,0.9677627999990364,None,0,None,-28,57:43,-2,,,,,,,,,,,,,,Rachel,1 - without skip,"57:43, 54:46","1.5s, 1.0s",2023-07-20_16h26.29.600,Rewa's Exp,2023.1.2,60.05883363350552,
Countdown_1.5s.mp4,red,"[-1.0, 1.0, -1.0]",right,Countdown_1.5s.jpg,12,0,12,0,0,0,0,1,0,2,2,0,,,,,0,0,0,0,,,,,,,,1157.5595893000009,1152.0786945,1152.6157093000002,0.5370148000001791,left,0,None,-30,57:43,-2,0.514040500000192,,,,,,,,,,,,,Rachel,1 - without skip,"57:43, 54:46","1.5s, 1.0s",2023-07-20_16h26.29.600,Rewa's Exp,2023.1.2,60.05883363350552,
Countdown_1.5s.mp4,"[-1.0, 1.0, -1.0]",red,left,Countdown_1.5s.jpg,12,0,12,0,0,0,0,1,0,3,3,2,,,,,0,0,0,0,,,,,,,,1161.9835521000005,1156.502826,1157.1489761000012,0.6461501000012504,left,1,None,-29,57:43,1,0.6252682999984245,,,,,,,,,,,,,Rachel,1 - without skip,"57:43, 54:46","1.5s, 1.0s",2023-07-20_16h26.29.600,Rewa's Exp,2023.1.2,60.05883363350552,
Countdown_1s.mp4,"[-1.0, 1.0, -1.0]",red,left,Countdown_1s.jpg,12,0,12,0,0,0,0,1,1,0,4,3,,,,,0,0,0,0,,,,,,,,1166.540437900001,1161.0595811000003,1161.6657250000007,0.6061439000004611,left,1,None,-28,57:43,1,0.5882787999980792,,,,,,,,,,,,,Rachel,1 - without skip,"57:43, 54:46","1.5s, 1.0s",2023-07-20_16h26.29.600,Rewa's Exp,2023.1.2,60.05883363350552,
Countdown_1.5s.mp4,"[-1.0, 1.0, -1.0]",red,left,Countdown_1.5s.jpg,12,0,12,0,0,0,0,1,1,1,5,2,,,,,0,0,0,0,,,,,,,,1171.063463800001,1165.5826097000008,1166.2654792000012,0.682869500000379,left,1,None,-27,57:43,1,0.6576077999980043,,,,,,,,,,,,,Rachel,1 - without skip,"57:43, 54:46","1.5s, 1.0s",2023-07-20_16h26.29.600,Rewa's Exp,2023.1.2,60.05883363350552,
Countdown_1.5s.mp4,red,"[-1.0, 1.0, -1.0]",right,Countdown_1.5s.jpg,12,0,12,0,0,0,0,1,1,2,6,0,,,,,0,0,0,0,,,,,,,,1175.666591000001,1170.1858616000009,1170.8658804000006,0.6800187999997434,right,1,None,-26,57:43,1,0.6619757999997091,,,,,,,,,,,,,Rachel,1 - without skip,"57:43, 54:46","1.5s, 1.0s",2023-07-20_16h26.29.600,Rewa's Exp,2023.1.2,60.05883363350552,
Countdown_1s.mp4,red,"[-1.0, 1.0, -1.0]",right,Countdown_1s.jpg,12,0,12,0,0,0,0,1,1,3,7,1,,,,,0,0,0,0,,,,,,,,1180.2649932000004,1174.7841666000004,1175.4992902000013,0.7151236000008794,right,1,None,-25,57:43,1,0.6965932999974029,,,,,,,,,,,,,Rachel,1 - without skip,"57:43, 54:46","1.5s, 1.0s",2023-07-20_16h26.29.600,Rewa's Exp,2023.1.2,60.05883363350552,
Countdown_1.5s.mp4,red,"[-1.0, 1.0, -1.0]",right,Countdown_1.5s.jpg,12,0,12,0,0,0,0,1,,,,,0,0,0,0,0,0,0,0,,,,,,,,,1179.4335584,1180.3657564000005,0.932198000000426,,,,-27,54:46,-2,,left,0,0.9114052999975684,None,,,,,,,,,Rachel,1 - without skip,"57:43, 54:46","1.5s, 1.0s",2023-07-20_16h26.29.600,Rewa's Exp,2023.1.2,60.05883363350552,
Countdown_1s.mp4,red,"[-1.0, 1.0, -1.0]",right,Countdown_1s.jpg,12,0,12,0,0,0,0,1,,,,,0,1,1,1,0,0,0,0,,,,,,,,,1184.3260728000005,1185.1823626000005,0.8562898000000132,,,,-26,54:46,1,,right,1,0.8256765999976778,None,,,,,,,,,Rachel,1 - without skip,"57:43, 54:46","1.5s, 1.0s",2023-07-20_16h26.29.600,Rewa's Exp,2023.1.2,60.05883363350552,
Countdown_1s.mp4,"[-1.0, 1.0, -1.0]",red,left,Countdown_1s.jpg,12,0,12,0,0,0,0,1,,,,,0,2,2,3,0,0,0,0,,,,,,,,,1189.0854369000008,1189.8159001000004,0.7304631999995763,,,,-28,54:46,-2,,right,0,0.6982968999982404,None,,,,,,,,,Rachel,1 - without skip,"57:43, 54:46","1.5s, 1.0s",2023-07-20_16h26.29.600,Rewa's Exp,2023.1.2,60.05883363350552,
Countdown_1.5s.mp4,"[-1.0, 1.0, -1.0]",red,left,Countdown_1.5s.jpg,12,0,12,0,0,0,0,1,,,,,0,3,3,2,0,0,0,0,,,,,,,,,1193.7573082,1194.2989371000003,0.5416289000004326,,,,-27,54:46,1,,left,1,0.5149663999982295,None,,,,,,,,,Rachel,1 - without skip,"57:43, 54:46","1.5s, 1.0s",2023-07-20_16h26.29.600,Rewa's Exp,2023.1.2,60.05883363350552,
Countdown_1s.mp4,"[-1.0, 1.0, -1.0]",red,left,Countdown_1s.jpg,12,0,12,0,0,0,0,1,,,,,1,0,4,3,0,0,0,0,,,,,,,,,1198.2043119999998,1198.8825314000005,0.6782194000006712,,,,-26,54:46,1,,left,1,0.6610119999986637,None,,,,,,,,,Rachel,1 - without skip,"57:43, 54:46","1.5s, 1.0s",2023-07-20_16h26.29.600,Rewa's Exp,2023.1.2,60.05883363350552,
Countdown_1s.mp4,red,"[-1.0, 1.0, -1.0]",right,Countdown_1s.jpg,12,0,12,0,0,0,0,1,,,,,1,1,5,1,0,0,0,0,,,,,,,,,1202.7948359000002,1203.4991504000009,0.7043145000006916,,,,-28,54:46,-2,,left,0,0.6857619999991584,None,,,,,,,,,Rachel,1 - without skip,"57:43, 54:46","1.5s, 1.0s",2023-07-20_16h26.29.600,Rewa's Exp,2023.1.2,60.05883363350552,
Countdown_1.5s.mp4,red,"[-1.0, 1.0, -1.0]",right,Countdown_1.5s.jpg,12,0,12,0,0,0,0,1,,,,,1,2,6,0,0,0,0,0,,,,,,,,,1207.4067520000008,1208.3160196000008,0.909267600000021,,,,-27,54:46,1,,right,1,0.8819532999987132,None,,,,,,,,,Rachel,1 - without skip,"57:43, 54:46","1.5s, 1.0s",2023-07-20_16h26.29.600,Rewa's Exp,2023.1.2,60.05883363350552,
Countdown_1.5s.mp4,"[-1.0, 1.0, -1.0]",red,left,Countdown_1.5s.jpg,12,0,12,0,0,0,0,1,,,,,1,3,7,2,0,0,0,0,,,,,,,,,1212.242008700001,1212.9323069000002,0.6902981999992335,,,,-26,54:46,1,,left,1,0.6708902999998827,None,,,,,,,,,Rachel,1 - without skip,"57:43, 54:46","1.5s, 1.0s",2023-07-20_16h26.29.600,Rewa's Exp,2023.1.2,60.05883363350552,
Countdown_1s.mp4,red,"[-1.0, 1.0, -1.0]",right,Countdown_1s.jpg,12,0,12,0,0,0,0,1,,,,,,,,,0,0,0,1,,,,,,,,,,,,,,,,,,,,,,,1219.5570164,1219.5570164,1219.5570164,1219.5570164,space,5.692398799998045,,,Rachel,1 - without skip,"57:43, 54:46","1.5s, 1.0s",2023-07-20_16h26.29.600,Rewa's Exp,2023.1.2,60.05883363350552,
Countdown_1.5s.mp4,red,"[-1.0, 1.0, -1.0]",right,Countdown_1.5s.jpg,13,0,13,0,0,0,0,0,0,0,0,0,,,,,0,0,0,1,,,,,,,,1228.0458661000011,1222.5650828000016,1223.323946800001,0.7588639999994484,right,1,None,-25,57:43,1,0.7312298999986524,,,,,,,,,,,,,Rachel,1 - without skip,"57:43, 54:46","1.5s, 1.0s",2023-07-20_16h26.29.600,Rewa's Exp,2023.1.2,60.05883363350552,
Countdown_1s.mp4,red,"[-1.0, 1.0, -1.0]",right,Countdown_1s.jpg,13,0,13,0,0,0,0,0,0,1,1,1,,,,,0,0,0,1,,,,,,,,1232.7313834000015,1227.2505559,1227.9325086000008,0.6819527000006929,right,1,None,-24,57:43,1,0.6614846999982547,,,,,,,,,,,,,Rachel,1 - without skip,"57:43, 54:46","1.5s, 1.0s",2023-07-20_16h26.29.600,Rewa's Exp,2023.1.2,60.05883363350552,
Countdown_1s.mp4,"[-1.0, 1.0, -1.0]",red,left,Countdown_1s.jpg,13,0,13,0,0,0,0,0,0,2,2,3,,,,,0,0,0,1,,,,,,,,1237.3336647000015,1231.8528311999999,1232.4490618,0.5962306000001263,left,1,None,-23,57:43,1,0.5638981999982207,,,,,,,,,,,,,Rachel,1 - without skip,"57:43, 54:46","1.5s, 1.0s",2023-07-20_16h26.29.600,Rewa's Exp,2023.1.2,60.05883363350552,
Countdown_1.5s.mp4,"[-1.0, 1.0, -1.0]",red,left,Countdown_1.5s.jpg,13,0,13,0,0,0,0,0,0,3,3,2,,,,,0,0,0,1,,,,,,,,1241.9114512000015,1236.4306606999999,1237.3490231000014,0.9183624000015698,right,0,None,-25,57:43,-2,0.8972309999990102,,,,,,,,,,,,,Rachel,1 - without skip,"57:43, 54:46","1.5s, 1.0s",2023-07-20_16h26.29.600,Rewa's Exp,2023.1.2,60.05883363350552,
Countdown_1.5s.mp4,"[-1.0, 1.0, -1.0]",red,left,Countdown_1.5s.jpg,13,0,13,0,0,0,0,0,1,0,4,2,,,,,0,0,0,1,,,,,,,,1246.7491910000008,1241.268466200001,1241.8998263000012,0.6313601000001654,left,1,None,-24,57:43,1,0.61249769999813,,,,,,,,,,,,,Rachel,1 - without skip,"57:43, 54:46","1.5s, 1.0s",2023-07-20_16h26.29.600,Rewa's Exp,2023.1.2,60.05883363350552,
Countdown_1.5s.mp4,red,"[-1.0, 1.0, -1.0]",right,Countdown_1.5s.jpg,13,0,13,0,0,0,0,0,1,1,5,0,,,,,0,0,0,1,,,,,,,,1251.3169462000005,1245.8361292999998,1246.6158013000004,0.7796720000005735,right,1,None,-23,57:43,1,0.756154400000014,,,,,,,,,,,,,Rachel,1 - without skip,"57:43, 54:46","1.5s, 1.0s",2023-07-20_16h26.29.600,Rewa's Exp,2023.1.2,60.05883363350552,
Countdown_1s.mp4,"[-1.0, 1.0, -1.0]",red,left,Countdown_1s.jpg,13,0,13,0,0,0,0,0,1,2,6,3,,,,,0,0,0,1,,,,,,,,1255.9879365000015,1250.5071731000007,1251.2324934000007,0.7253203000000212,left,1,None,-22,57:43,1,0.6926368999975239,,,,,,,,,,,,,Rachel,1 - without skip,"57:43, 54:46","1.5s, 1.0s",2023-07-20_16h26.29.600,Rewa's Exp,2023.1.2,60.05883363350552,
Countdown_1s.mp4,red,"[-1.0, 1.0, -1.0]",right,Countdown_1s.jpg,13,0,13,0,0,0,0,0,1,3,7,1,,,,,0,0,0,1,,,,,,,,1260.6214530000016,1255.1406062000005,1255.7326939000013,0.5920877000007749,left,0,None,-24,57:43,-2,0.5628381999995327,,,,,,,,,,,,,Rachel,1 - without skip,"57:43, 54:46","1.5s, 1.0s",2023-07-20_16h26.29.600,Rewa's Exp,2023.1.2,60.05883363350552,
Countdown_1.5s.mp4,"[-1.0, 1.0, -1.0]",red,left,Countdown_1.5s.jpg,13,0,13,0,0,0,0,0,,,,,0,0,0,2,0,0,0,1,,,,,,,,,1259.6693307000005,1260.3658882,0.6965574999994715,,,,-23,54:46,1,,left,1,0.674828899998829,None,,,,,,,,,Rachel,1 - without skip,"57:43, 54:46","1.5s, 1.0s",2023-07-20_16h26.29.600,Rewa's Exp,2023.1.2,60.05883363350552,
Countdown_1s.mp4,"[-1.0, 1.0, -1.0]",red,left,Countdown_1s.jpg,13,0,13,0,0,0,0,0,,,,,0,1,1,3,0,0,0,1,,,,,,,,,1264.2813799000014,1264.9161584000012,0.6347784999998112,,,,-22,54:46,1,,left,1,0.6067457999979524,None,,,,,,,,,Rachel,1 - without skip,"57:43, 54:46","1.5s, 1.0s",2023-07-20_16h26.29.600,Rewa's Exp,2023.1.2,60.05883363350552,
Countdown_1.5s.mp4,red,"[-1.0, 1.0, -1.0]",right,Countdown_1.5s.jpg,13,0,13,0,0,0,0,0,,,,,0,2,2,0,0,0,0,1,,,,,,,,,1268.8817825000006,1269.4990309000004,0.6172483999998803,,,,-21,54:46,1,,right,1,0.589762099998552,None,,,,,,,,,Rachel,1 - without skip,"57:43, 54:46","1.5s, 1.0s",2023-07-20_16h26.29.600,Rewa's Exp,2023.1.2,60.05883363350552,
Countdown_1s.mp4,red,"[-1.0, 1.0, -1.0]",right,Countdown_1s.jpg,13,0,13,0,0,0,0,0,,,,,0,3,3,1,0,0,0,1,,,,,,,,,1273.4020805,1274.0659435000016,0.6638630000015837,,,,-23,54:46,-2,,left,0,0.64645919999748,None,,,,,,,,,Rachel,1 - without skip,"57:43, 54:46","1.5s, 1.0s",2023-07-20_16h26.29.600,Rewa's Exp,2023.1.2,60.05883363350552,
Countdown_1s.mp4,"[-1.0, 1.0, -1.0]",red,left,Countdown_1s.jpg,13,0,13,0,0,0,0,0,,,,,1,0,4,3,0,0,0,1,,,,,,,,,1277.9502936000008,1278.6491182999998,0.6988246999990224,,,,-22,54:46,1,,left,1,0.6739873999995325,None,,,,,,,,,Rachel,1 - without skip,"57:43, 54:46","1.5s, 1.0s",2023-07-20_16h26.29.600,Rewa's Exp,2023.1.2,60.05883363350552,
Countdown_1.5s.mp4,"[-1.0, 1.0, -1.0]",red,left,Countdown_1.5s.jpg,13,0,13,0,0,0,0,0,,,,,1,1,5,2,0,0,0,1,,,,,,,,,1282.5558818999998,1283.6324293000016,1.0765474000018003,,,,-24,54:46,-2,,right,0,1.0597451999983605,None,,,,,,,,,Rachel,1 - without skip,"57:43, 54:46","1.5s, 1.0s",2023-07-20_16h26.29.600,Rewa's Exp,2023.1.2,60.05883363350552,
Countdown_1s.mp4,red,"[-1.0, 1.0, -1.0]",right,Countdown_1s.jpg,13,0,13,0,0,0,0,0,,,,,1,2,6,1,0,0,0,1,,,,,,,,,1287.6040991999998,1288.3829678000002,0.7788686000003509,,,,-23,54:46,1,,right,1,0.747955799999545,None,,,,,,,,,Rachel,1 - without skip,"57:43, 54:46","1.5s, 1.0s",2023-07-20_16h26.29.600,Rewa's Exp,2023.1.2,60.05883363350552,
Countdown_1.5s.mp4,red,"[-1.0, 1.0, -1.0]",right,Countdown_1.5s.jpg,13,0,13,0,0,0,0,0,,,,,1,3,7,0,0,0,0,1,,,,,,,,,1292.3046228000003,1293.2330717000004,0.9284489000001486,,,,-25,54:46,-2,,left,0,0.8957165999981953,None,,,,,,,,,Rachel,1 - without skip,"57:43, 54:46","1.5s, 1.0s",2023-07-20_16h26.29.600,Rewa's Exp,2023.1.2,60.05883363350552,
Countdown_1s.mp4,red,"[-1.0, 1.0, -1.0]",right,Countdown_1s.jpg,13,0,13,0,0,0,0,0,,,,,,,,,0,0,0,1,,,,,,,,,,,,,,,,,,,,,,,1299.8688447000004,1299.8688447000004,1299.8688447000004,1299.8688447000004,space,1.996803899999577,,,Rachel,1 - without skip,"57:43, 54:46","1.5s, 1.0s",2023-07-20_16h26.29.600,Rewa's Exp,2023.1.2,60.05883363350552,
Countdown_1.5s.mp4,"[-1.0, 1.0, -1.0]",red,left,Countdown_1.5s.jpg,14,0,14,0,0,0,0,3,0,0,0,2,,,,,0,0,0,1,,,,,,,,1304.6834792999998,1299.2026856000011,1299.9826202000004,0.7799345999992511,left,1,None,-24,57:43,1,0.7565630999997666,,,,,,,,,,,,,Rachel,1 - without skip,"57:43, 54:46","1.5s, 1.0s",2023-07-20_16h26.29.600,Rewa's Exp,2023.1.2,60.05883363350552,
Countdown_1s.mp4,"[-1.0, 1.0, -1.0]",red,left,Countdown_1s.jpg,14,0,14,0,0,0,0,3,0,1,1,3,,,,,0,0,0,1,,,,,,,,1309.3589078000005,1303.8782233000002,1304.7160359000009,0.8378126000006887,right,0,None,-26,57:43,-2,0.8191042999987985,,,,,,,,,,,,,Rachel,1 - without skip,"57:43, 54:46","1.5s, 1.0s",2023-07-20_16h26.29.600,Rewa's Exp,2023.1.2,60.05883363350552,
Countdown_1s.mp4,red,"[-1.0, 1.0, -1.0]",right,Countdown_1s.jpg,14,0,14,0,0,0,0,3,0,2,2,1,,,,,0,0,0,1,,,,,,,,1314.1221573000003,1308.6423361000016,1309.3831869000005,0.7408507999989524,right,1,None,-25,57:43,1,0.7102637999996659,,,,,,,,,,,,,Rachel,1 - without skip,"57:43, 54:46","1.5s, 1.0s",2023-07-20_16h26.29.600,Rewa's Exp,2023.1.2,60.05883363350552,
Countdown_1.5s.mp4,red,"[-1.0, 1.0, -1.0]",right,Countdown_1.5s.jpg,14,0,14,0,0,0,0,3,0,3,3,0,,,,,0,0,0,1,,,,,,,,1318.7866503000005,1313.3058292000005,1314.1825217000005,0.8766924999999901,left,0,None,-27,57:43,-2,0.8457648999992671,,,,,,,,,,,,,Rachel,1 - without skip,"57:43, 54:46","1.5s, 1.0s",2023-07-20_16h26.29.600,Rewa's Exp,2023.1.2,60.05883363350552,
Countdown_1.5s.mp4,red,"[-1.0, 1.0, -1.0]",right,Countdown_1.5s.jpg,14,0,14,0,0,0,0,3,1,0,4,0,,,,,0,0,0,1,,,,,,,,1323.625346500001,1318.1445532000016,1318.9661664000014,0.8216131999997742,right,1,None,-26,57:43,1,0.7906295999982831,,,,,,,,,,,,,Rachel,1 - without skip,"57:43, 54:46","1.5s, 1.0s",2023-07-20_16h26.29.600,Rewa's Exp,2023.1.2,60.05883363350552,
Countdown_1s.mp4,"[-1.0, 1.0, -1.0]",red,left,Countdown_1s.jpg,14,0,14,0,0,0,0,3,1,1,5,3,,,,,0,0,0,1,,,,,,,,1328.3553317000005,1322.8746206000014,1323.4991902000002,0.624569599998722,left,1,None,-25,57:43,1,0.6065918999975111,,,,,,,,,,,,,Rachel,1 - without skip,"57:43, 54:46","1.5s, 1.0s",2023-07-20_16h26.29.600,Rewa's Exp,2023.1.2,60.05883363350552,
Countdown_1s.mp4,red,"[-1.0, 1.0, -1.0]",right,Countdown_1s.jpg,14,0,14,0,0,0,0,3,1,2,6,1,,,,,0,0,0,1,,,,,,,,1332.9081510000015,1327.4274560000013,1328.1159629000013,0.688506899999993,right,1,None,-24,57:43,1,0.6605242999994516,,,,,,,,,,,,,Rachel,1 - without skip,"57:43, 54:46","1.5s, 1.0s",2023-07-20_16h26.29.600,Rewa's Exp,2023.1.2,60.05883363350552,
Countdown_1.5s.mp4,"[-1.0, 1.0, -1.0]",red,left,Countdown_1.5s.jpg,14,0,14,0,0,0,0,3,1,3,7,2,,,,,0,0,0,1,,,,,,,,1337.5512113000004,1332.0703758,1332.6998758999998,0.6295000999998592,left,1,None,-23,57:43,1,0.6016987999973935,,,,,,,,,,,,,Rachel,1 - without skip,"57:43, 54:46","1.5s, 1.0s",2023-07-20_16h26.29.600,Rewa's Exp,2023.1.2,60.05883363350552,
Countdown_1.5s.mp4,red,"[-1.0, 1.0, -1.0]",right,Countdown_1.5s.jpg,14,0,14,0,0,0,0,3,,,,,0,0,0,0,0,0,0,1,,,,,,,,,1336.6381716000014,1337.366172,0.7280003999985638,,,,-22,54:46,1,,right,1,0.7060694999981934,None,,,,,,,,,Rachel,1 - without skip,"57:43, 54:46","1.5s, 1.0s",2023-07-20_16h26.29.600,Rewa's Exp,2023.1.2,60.05883363350552,
Countdown_1.5s.mp4,"[-1.0, 1.0, -1.0]",red,left,Countdown_1.5s.jpg,14,0,14,0,0,0,0,3,,,,,0,1,1,2,0,0,0,1,,,,,,,,,1341.2743061,1341.949521800001,0.6752157000009902,,,,-21,54:46,1,,left,1,0.6460357999985717,None,,,,,,,,,Rachel,1 - without skip,"57:43, 54:46","1.5s, 1.0s",2023-07-20_16h26.29.600,Rewa's Exp,2023.1.2,60.05883363350552,
Countdown_1s.mp4,"[-1.0, 1.0, -1.0]",red,left,Countdown_1s.jpg,14,0,14,0,0,0,0,3,,,,,0,2,2,3,0,0,0,1,,,,,,,,,1345.9149934000015,1346.5327054000009,0.617711999999301,,,,-23,54:46,-2,,right,0,0.5978776999982074,None,,,,,,,,,Rachel,1 - without skip,"57:43, 54:46","1.5s, 1.0s",2023-07-20_16h26.29.600,Rewa's Exp,2023.1.2,60.05883363350552,
Countdown_1s.mp4,red,"[-1.0, 1.0, -1.0]",right,Countdown_1s.jpg,14,0,14,0,0,0,0,3,,,,,0,3,3,1,0,0,0,1,,,,,,,,,1350.4203744000006,1351.1993696999998,0.7789952999992238,,,,-22,54:46,1,,right,1,0.7471232999996573,None,,,,,,,,,Rachel,1 - without skip,"57:43, 54:46","1.5s, 1.0s",2023-07-20_16h26.29.600,Rewa's Exp,2023.1.2,60.05883363350552,
Countdown_1.5s.mp4,"[-1.0, 1.0, -1.0]",red,left,Countdown_1.5s.jpg,14,0,14,0,0,0,0,3,,,,,1,0,4,2,0,0,0,1,,,,,,,,,1355.0927323000014,1356.0835963000009,0.9908639999994193,,,,-24,54:46,-2,,right,0,0.9721468999978242,None,,,,,,,,,Rachel,1 - without skip,"57:43, 54:46","1.5s, 1.0s",2023-07-20_16h26.29.600,Rewa's Exp,2023.1.2,60.05883363350552,
Countdown_1.5s.mp4,red,"[-1.0, 1.0, -1.0]",right,Countdown_1.5s.jpg,14,0,14,0,0,0,0,3,,,,,1,1,5,0,0,0,0,1,,,,,,,,,1360.0166371000014,1360.7494608000015,0.7328237000001536,,,,-26,54:46,-2,,left,0,0.712816399998701,None,,,,,,,,,Rachel,1 - without skip,"57:43, 54:46","1.5s, 1.0s",2023-07-20_16h26.29.600,Rewa's Exp,2023.1.2,60.05883363350552,
Countdown_1s.mp4,"[-1.0, 1.0, -1.0]",red,left,Countdown_1s.jpg,14,0,14,0,0,0,0,3,,,,,1,2,6,3,0,0,0,1,,,,,,,,,1364.6570982000012,1365.2162851000012,0.559186899999986,,,,-25,54:46,1,,left,1,0.5265804999980901,None,,,,,,,,,Rachel,1 - without skip,"57:43, 54:46","1.5s, 1.0s",2023-07-20_16h26.29.600,Rewa's Exp,2023.1.2,60.05883363350552,
Countdown_1s.mp4,red,"[-1.0, 1.0, -1.0]",right,Countdown_1s.jpg,14,0,14,0,0,0,0,3,,,,,1,3,7,1,0,0,0,1,,,,,,,,,1369.1409411000004,1369.8498612000003,0.7089200999998866,,,,-24,54:46,1,,right,1,0.6756432999973185,None,,,,,,,,,Rachel,1 - without skip,"57:43, 54:46","1.5s, 1.0s",2023-07-20_16h26.29.600,Rewa's Exp,2023.1.2,60.05883363350552,
Countdown_1s.mp4,red,"[-1.0, 1.0, -1.0]",right,Countdown_1s.jpg,14,0,14,0,0,0,0,3,,,,,,,,,0,0,0,1,,,,,,,,,,,,,,,,,,,,,,,1376.4964025999998,1376.4964025999998,1376.4964025999998,1376.4964025999998,space,1.5524910999993153,,,Rachel,1 - without skip,"57:43, 54:46","1.5s, 1.0s",2023-07-20_16h26.29.600,Rewa's Exp,2023.1.2,60.05883363350552,
,,,,,,,,,,,,,,,,,,,,,,,,,,,,,,,,,,,,,,,,,,,,,,,,,,,,,1378.0746877000001,1383.0743017000004,,,,,,,,,
