Countdown,color1,color2,correct,screenshot,trials.thisRepN,trials.thisTrialN,trials.thisN,trials.thisIndex,trials_6040.thisRepN,trials_6040.thisTrialN,trials_6040.thisN,trials_6040.thisIndex,trials_5743.thisRepN,trials_5743.thisTrialN,trials_5743.thisN,trials_5743.thisIndex,trials_5446.thisRepN,trials_5446.thisTrialN,trials_5446.thisN,trials_5446.thisIndex,trials_5149.thisRepN,trials_5149.thisTrialN,trials_5149.thisN,trials_5149.thisIndex,key_resp_4.started,key_resp_4.keys,key_resp_4.rt,key_resp_2.keys,key_resp_3.started,key_resp_3.keys,key_resp_3.rt,Left_3.started,Videoshowstart,Videoshowstop,VideoshowRT,response_2.keys,response_2.corr,key_skip_2.keys,total_score,Dot_ratio,current_score,response_2.rt,response_3.keys,response_3.corr,response_3.rt,key_skip_3.keys,key_skip_3.rt,text_2.started,text_5.started,key_resp.started,text_9.started,key_resp.keys,key_resp.rt,key_skip_2.rt,text_10.started,text_10.stopped,participant,Task,Dot Ratio,Deadline,date,expName,psychopyVersion,frameRate,
,,,,,,,,,,,,,,,,,,,,,,,,,34.48565540000163,space,1.6522515999986354,,,,,,,,,,,,,,,,,,,,,,,,,,,,,,Rachel,2 - with skip,"57:43, 54:46","1.5s, 1.0s",2023-07-20_17h06.58.443,Rewa's Exp,2023.1.2,59.890783167402624,
,,,,,,,,,,,,,,,,,,,,,,,,,,,,None,,,,,,,,,,,,,,,,,,,,,,,,,,,,,Rachel,2 - with skip,"57:43, 54:46","1.5s, 1.0s",2023-07-20_17h06.58.443,Rewa's Exp,2023.1.2,59.890783167402624,
,,,,,,,,,,,,,,,,,,,,,,,,,,,,,36.16977399999996,space,0.5195724000004702,,,,,,,,,,,,,,,,,,,,,,,,,,Rachel,2 - with skip,"57:43, 54:46","1.5s, 1.0s",2023-07-20_17h06.58.443,Rewa's Exp,2023.1.2,59.890783167402624,
Countdown_1s.mp4,"[-1.0, 1.0, -1.0]",red,left,Countdown_1s.jpg,0,0,0,0,0,0,0,1,0,0,0,3,,,,,,,,,,,,,,,,39.37086740000086,33.802167499999996,34.7398675000004,0.9377000000004045,None,0,None,-2,57:43,-2,,,,,,,,,,,,,,,,Rachel,2 - with skip,"57:43, 54:46","1.5s, 1.0s",2023-07-20_17h06.58.443,Rewa's Exp,2023.1.2,59.890783167402624,
Countdown_1s.mp4,red,"[-1.0, 1.0, -1.0]",right,Countdown_1s.jpg,0,0,0,0,0,0,0,1,0,1,1,1,,,,,,,,,,,,,,,,44.26991310000085,38.70121270000163,39.38954850000118,0.6883357999995496,right,1,None,-1,57:43,1,0.6685005999988789,,,,,,,,,,,,,,,Rachel,2 - with skip,"57:43, 54:46","1.5s, 1.0s",2023-07-20_17h06.58.443,Rewa's Exp,2023.1.2,59.890783167402624,
Countdown_1.5s.mp4,red,"[-1.0, 1.0, -1.0]",right,Countdown_1.5s.jpg,0,0,0,0,0,0,0,1,0,2,2,0,,,,,,,,,,,,,,,,48.87316640000063,43.30455020000045,43.922980300001655,0.6184301000012056,right,1,None,0,57:43,1,0.6009888999979012,,,,,,,,,,,,,,,Rachel,2 - with skip,"57:43, 54:46","1.5s, 1.0s",2023-07-20_17h06.58.443,Rewa's Exp,2023.1.2,59.890783167402624,
Countdown_1.5s.mp4,"[-1.0, 1.0, -1.0]",red,left,Countdown_1.5s.jpg,0,0,0,0,0,0,0,1,0,3,3,2,,,,,,,,,,,,,,,,53.3993784000013,47.830820800001675,48.372956900000645,0.5421360999989702,left,1,None,1,57:43,1,0.522466099999292,,,,,,,,,,,,,,,Rachel,2 - with skip,"57:43, 54:46","1.5s, 1.0s",2023-07-20_17h06.58.443,Rewa's Exp,2023.1.2,59.890783167402624,
Countdown_1s.mp4,"[-1.0, 1.0, -1.0]",red,left,Countdown_1s.jpg,0,0,0,0,0,0,0,1,1,0,4,3,,,,,,,,,,,,,,,,57.84341910000148,52.27478750000046,52.93959560000076,0.6648081000003003,left,1,None,2,57:43,1,0.6467264000002615,,,,,,,,,,,,,,,Rachel,2 - with skip,"57:43, 54:46","1.5s, 1.0s",2023-07-20_17h06.58.443,Rewa's Exp,2023.1.2,59.890783167402624,
Countdown_1.5s.mp4,"[-1.0, 1.0, -1.0]",red,left,Countdown_1.5s.jpg,0,0,0,0,0,0,0,1,1,1,5,2,,,,,,,,,,,,,,,,62.405268600001364,56.83660180000152,57.7728618000001,0.9362599999985832,right,0,None,0,57:43,-2,0.9172675999998319,,,,,,,,,,,,,,,Rachel,2 - with skip,"57:43, 54:46","1.5s, 1.0s",2023-07-20_17h06.58.443,Rewa's Exp,2023.1.2,59.890783167402624,
Countdown_1.5s.mp4,red,"[-1.0, 1.0, -1.0]",right,Countdown_1.5s.jpg,0,0,0,0,0,0,0,1,1,2,6,0,,,,,,,,,,,,,,,,67.2533422000015,61.684796300000016,62.556696000001466,0.8718997000014497,right,1,None,1,57:43,1,0.8433279999990191,,,,,,,,,,,,,,,Rachel,2 - with skip,"57:43, 54:46","1.5s, 1.0s",2023-07-20_17h06.58.443,Rewa's Exp,2023.1.2,59.890783167402624,
Countdown_1s.mp4,red,"[-1.0, 1.0, -1.0]",right,Countdown_1s.jpg,0,0,0,0,0,0,0,1,1,3,7,1,,,,,,,,,,,,,,,,72.10299650000161,66.5343840000005,67.50648950000141,0.9721055000009073,right,1,None,2,57:43,1,0.9707146000000648,,,,,,,,,,,,,,,Rachel,2 - with skip,"57:43, 54:46","1.5s, 1.0s",2023-07-20_17h06.58.443,Rewa's Exp,2023.1.2,59.890783167402624,
Countdown_1.5s.mp4,red,"[-1.0, 1.0, -1.0]",right,Countdown_1.5s.jpg,0,0,0,0,0,0,0,1,,,,,0,0,0,0,,,,,,,,,,,,,71.26329070000065,72.22281170000133,0.9595210000006773,,,,3,54:46,1,,right,1,0.9289082999985112,None,,,,,,,,,,,Rachel,2 - with skip,"57:43, 54:46","1.5s, 1.0s",2023-07-20_17h06.58.443,Rewa's Exp,2023.1.2,59.890783167402624,
Countdown_1s.mp4,red,"[-1.0, 1.0, -1.0]",right,Countdown_1s.jpg,0,0,0,0,0,0,0,1,,,,,0,1,1,1,,,,,,,,,,,,,76.13513480000074,76.95642350000162,0.8212887000008777,,,,1,54:46,-2,,left,0,0.7938885999992635,None,,,,,,,,,,,Rachel,2 - with skip,"57:43, 54:46","1.5s, 1.0s",2023-07-20_17h06.58.443,Rewa's Exp,2023.1.2,59.890783167402624,
Countdown_1s.mp4,"[-1.0, 1.0, -1.0]",red,left,Countdown_1s.jpg,0,0,0,0,0,0,0,1,,,,,0,2,2,3,,,,,,,,,,,,,80.86689939999997,81.77294370000163,0.9060443000016676,,,,-1,54:46,-2,,right,0,0.8864797999995062,None,,,,,,,,,,,Rachel,2 - with skip,"57:43, 54:46","1.5s, 1.0s",2023-07-20_17h06.58.443,Rewa's Exp,2023.1.2,59.890783167402624,
Countdown_1.5s.mp4,"[-1.0, 1.0, -1.0]",red,left,Countdown_1.5s.jpg,0,0,0,0,0,0,0,1,,,,,0,3,3,2,,,,,,,,,,,,,85.67330050000055,86.28965020000032,0.6163496999997733,,,,0,54:46,1,,left,1,0.5844495999990613,None,,,,,,,,,,,Rachel,2 - with skip,"57:43, 54:46","1.5s, 1.0s",2023-07-20_17h06.58.443,Rewa's Exp,2023.1.2,59.890783167402624,
Countdown_1s.mp4,red,"[-1.0, 1.0, -1.0]",right,Countdown_1s.jpg,0,0,0,0,0,0,0,1,,,,,1,0,4,1,,,,,,,,,,,,,90.19895600000018,90.82299090000015,0.6240348999999696,,,,-2,54:46,-2,,left,0,0.5929307000005792,None,,,,,,,,,,,Rachel,2 - with skip,"57:43, 54:46","1.5s, 1.0s",2023-07-20_17h06.58.443,Rewa's Exp,2023.1.2,59.890783167402624,
Countdown_1s.mp4,"[-1.0, 1.0, -1.0]",red,left,Countdown_1s.jpg,0,0,0,0,0,0,0,1,,,,,1,1,5,3,,,,,,,,,,,,,94.72524840000005,95.50652020000052,0.7812718000004679,,,,-1,54:46,1,,left,1,0.7558718999989651,None,,,,,,,,,,,Rachel,2 - with skip,"57:43, 54:46","1.5s, 1.0s",2023-07-20_17h06.58.443,Rewa's Exp,2023.1.2,59.890783167402624,
Countdown_1.5s.mp4,red,"[-1.0, 1.0, -1.0]",right,Countdown_1.5s.jpg,0,0,0,0,0,0,0,1,,,,,1,2,6,0,,,,,,,,,,,,,99.41628720000153,100.25635390000025,0.8400666999987152,,,,0,54:46,1,,right,1,0.8156603000006726,None,,,,,,,,,,,Rachel,2 - with skip,"57:43, 54:46","1.5s, 1.0s",2023-07-20_17h06.58.443,Rewa's Exp,2023.1.2,59.890783167402624,
Countdown_1.5s.mp4,"[-1.0, 1.0, -1.0]",red,left,Countdown_1.5s.jpg,0,0,0,0,0,0,0,1,,,,,1,3,7,2,,,,,,,,,,,,,104.17636090000087,105.006914900001,0.8305540000001201,,,,0,54:46,0,,None,0,,space,0.7999279999985447,,,,,,,,,,Rachel,2 - with skip,"57:43, 54:46","1.5s, 1.0s",2023-07-20_17h06.58.443,Rewa's Exp,2023.1.2,59.890783167402624,
Countdown_1.5s.mp4,"[-1.0, 1.0, -1.0]",red,left,Countdown_1.5s.jpg,0,0,0,0,0,0,0,1,,,,,,,,,0,0,0,2,,,,,,,,,,,,,,,,,,,,,,,,111.74113260000013,111.74113260000013,111.74113260000013,111.74113260000013,space,2.724899299999379,,,,Rachel,2 - with skip,"57:43, 54:46","1.5s, 1.0s",2023-07-20_17h06.58.443,Rewa's Exp,2023.1.2,59.890783167402624,
Countdown_1s.mp4,"[-1.0, 1.0, -1.0]",red,left,Countdown_1s.jpg,1,0,1,0,0,0,0,2,0,0,0,3,,,,,0,0,0,2,,,,,,,,117.26996990000043,111.70136270000148,112.47312330000022,0.7717605999987427,left,1,None,1,57:43,1,0.7484569999996893,,,,,,,,,,,,,,,Rachel,2 - with skip,"57:43, 54:46","1.5s, 1.0s",2023-07-20_17h06.58.443,Rewa's Exp,2023.1.2,59.890783167402624,
Countdown_1s.mp4,red,"[-1.0, 1.0, -1.0]",right,Countdown_1s.jpg,1,0,1,0,0,0,0,2,0,1,1,1,,,,,0,0,0,2,,,,,,,,121.99647920000098,116.4277918000007,117.00649080000039,0.5786989999996877,right,1,None,2,57:43,1,0.557865299999321,,,,,,,,,,,,,,,Rachel,2 - with skip,"57:43, 54:46","1.5s, 1.0s",2023-07-20_17h06.58.443,Rewa's Exp,2023.1.2,59.890783167402624,
Countdown_1.5s.mp4,"[-1.0, 1.0, -1.0]",red,left,Countdown_1.5s.jpg,1,0,1,0,0,0,0,2,0,2,2,2,,,,,0,0,0,2,,,,,,,,126.47635369999989,120.9078081000007,121.93981610000083,1.0320080000001326,left,1,None,3,57:43,1,1.004672399998526,,,,,,,,,,,,,,,Rachel,2 - with skip,"57:43, 54:46","1.5s, 1.0s",2023-07-20_17h06.58.443,Rewa's Exp,2023.1.2,59.890783167402624,
Countdown_1.5s.mp4,red,"[-1.0, 1.0, -1.0]",right,Countdown_1.5s.jpg,1,0,1,0,0,0,0,2,0,3,3,0,,,,,0,0,0,2,,,,,,,,131.44863950000035,125.88005670000166,126.60620180000114,0.726145099999485,right,1,None,4,57:43,1,0.6963340999991487,,,,,,,,,,,,,,,Rachel,2 - with skip,"57:43, 54:46","1.5s, 1.0s",2023-07-20_17h06.58.443,Rewa's Exp,2023.1.2,59.890783167402624,
Countdown_1.5s.mp4,red,"[-1.0, 1.0, -1.0]",right,Countdown_1.5s.jpg,1,0,1,0,0,0,0,2,1,0,4,0,,,,,0,0,0,2,,,,,,,,136.09864630000084,130.52999230000023,131.2230227,0.6930303999997705,right,1,None,5,57:43,1,0.6708585999986099,,,,,,,,,,,,,,,Rachel,2 - with skip,"57:43, 54:46","1.5s, 1.0s",2023-07-20_17h06.58.443,Rewa's Exp,2023.1.2,59.890783167402624,
Countdown_1s.mp4,red,"[-1.0, 1.0, -1.0]",right,Countdown_1s.jpg,1,0,1,0,0,0,0,2,1,1,5,1,,,,,0,0,0,2,,,,,,,,140.74751319999996,135.17890310000075,135.9897516000001,0.810848499999338,right,1,None,6,57:43,1,0.782187699998758,,,,,,,,,,,,,,,Rachel,2 - with skip,"57:43, 54:46","1.5s, 1.0s",2023-07-20_17h06.58.443,Rewa's Exp,2023.1.2,59.890783167402624,
Countdown_1s.mp4,"[-1.0, 1.0, -1.0]",red,left,Countdown_1s.jpg,1,0,1,0,0,0,0,2,1,2,6,3,,,,,0,0,0,2,,,,,,,,145.50685410000006,139.93815920000088,140.57325530000162,0.6350961000007374,left,1,None,7,57:43,1,0.6147790999984863,,,,,,,,,,,,,,,Rachel,2 - with skip,"57:43, 54:46","1.5s, 1.0s",2023-07-20_17h06.58.443,Rewa's Exp,2023.1.2,59.890783167402624,
Countdown_1.5s.mp4,"[-1.0, 1.0, -1.0]",red,left,Countdown_1.5s.jpg,1,0,1,0,0,0,0,2,1,3,7,2,,,,,0,0,0,2,,,,,,,,150.1171656000006,144.5485666000004,145.43960960000004,0.8910429999996268,None,0,space,7,57:43,0,,,,,,,,,,,,,0.8671064999998634,,,Rachel,2 - with skip,"57:43, 54:46","1.5s, 1.0s",2023-07-20_17h06.58.443,Rewa's Exp,2023.1.2,59.890783167402624,
Countdown_1s.mp4,red,"[-1.0, 1.0, -1.0]",right,Countdown_1s.jpg,1,0,1,0,0,0,0,2,,,,,0,0,0,1,0,0,0,2,,,,,,,,,149.37224510000124,150.12366150000162,0.7514164000003802,,,,7,54:46,0,,None,0,,space,0.7319659999993746,,,,,,,,,,Rachel,2 - with skip,"57:43, 54:46","1.5s, 1.0s",2023-07-20_17h06.58.443,Rewa's Exp,2023.1.2,59.890783167402624,
Countdown_1s.mp4,"[-1.0, 1.0, -1.0]",red,left,Countdown_1s.jpg,1,0,1,0,0,0,0,2,,,,,0,1,1,3,0,0,0,2,,,,,,,,,154.09121400000004,154.67303640000137,0.5818224000013288,,,,8,54:46,1,,left,1,0.5572406999981467,None,,,,,,,,,,,Rachel,2 - with skip,"57:43, 54:46","1.5s, 1.0s",2023-07-20_17h06.58.443,Rewa's Exp,2023.1.2,59.890783167402624,
Countdown_1.5s.mp4,"[-1.0, 1.0, -1.0]",red,left,Countdown_1.5s.jpg,1,0,1,0,0,0,0,2,,,,,0,2,2,2,0,0,0,2,,,,,,,,,158.56868250000116,159.2064044000017,0.6377219000005425,,,,9,54:46,1,,left,1,0.6168837999994139,None,,,,,,,,,,,Rachel,2 - with skip,"57:43, 54:46","1.5s, 1.0s",2023-07-20_17h06.58.443,Rewa's Exp,2023.1.2,59.890783167402624,
Countdown_1.5s.mp4,red,"[-1.0, 1.0, -1.0]",right,Countdown_1.5s.jpg,1,0,1,0,0,0,0,2,,,,,0,3,3,0,0,0,0,2,,,,,,,,,163.11964400000033,163.88973440000154,0.7700904000012088,,,,7,54:46,-2,,left,0,0.7382099000005837,None,,,,,,,,,,,Rachel,2 - with skip,"57:43, 54:46","1.5s, 1.0s",2023-07-20_17h06.58.443,Rewa's Exp,2023.1.2,59.890783167402624,
Countdown_1s.mp4,"[-1.0, 1.0, -1.0]",red,left,Countdown_1s.jpg,1,0,1,0,0,0,0,2,,,,,1,0,4,3,0,0,0,2,,,,,,,,,167.81060700000126,168.50637140000072,0.6957643999994616,,,,8,54:46,1,,left,1,0.6628717999992659,None,,,,,,,,,,,Rachel,2 - with skip,"57:43, 54:46","1.5s, 1.0s",2023-07-20_17h06.58.443,Rewa's Exp,2023.1.2,59.890783167402624,
Countdown_1.5s.mp4,red,"[-1.0, 1.0, -1.0]",right,Countdown_1.5s.jpg,1,0,1,0,0,0,0,2,,,,,1,1,5,0,0,0,0,2,,,,,,,,,172.4082096000002,173.10645270000168,0.6982431000014913,,,,9,54:46,1,,right,1,0.6651478999992833,None,,,,,,,,,,,Rachel,2 - with skip,"57:43, 54:46","1.5s, 1.0s",2023-07-20_17h06.58.443,Rewa's Exp,2023.1.2,59.890783167402624,
Countdown_1s.mp4,red,"[-1.0, 1.0, -1.0]",right,Countdown_1s.jpg,1,0,1,0,0,0,0,2,,,,,1,2,6,1,0,0,0,2,,,,,,,,,176.99834200000078,177.70642450000014,0.7080824999993638,,,,7,54:46,-2,,left,0,0.6908261999979004,None,,,,,,,,,,,Rachel,2 - with skip,"57:43, 54:46","1.5s, 1.0s",2023-07-20_17h06.58.443,Rewa's Exp,2023.1.2,59.890783167402624,
Countdown_1.5s.mp4,"[-1.0, 1.0, -1.0]",red,left,Countdown_1.5s.jpg,1,0,1,0,0,0,0,2,,,,,1,3,7,2,0,0,0,2,,,,,,,,,181.64611820000027,182.22364170000037,0.5775235000000976,,,,8,54:46,1,,left,1,0.5470605999998952,None,,,,,,,,,,,Rachel,2 - with skip,"57:43, 54:46","1.5s, 1.0s",2023-07-20_17h06.58.443,Rewa's Exp,2023.1.2,59.890783167402624,
Countdown_1s.mp4,red,"[-1.0, 1.0, -1.0]",right,Countdown_1s.jpg,1,0,1,0,0,0,0,2,,,,,,,,,0,0,0,1,,,,,,,,,,,,,,,,,,,,,,,,188.95852880000166,188.95852880000166,188.95852880000166,188.95852880000166,space,1.2197871999997005,,,,Rachel,2 - with skip,"57:43, 54:46","1.5s, 1.0s",2023-07-20_17h06.58.443,Rewa's Exp,2023.1.2,59.890783167402624,
Countdown_1.5s.mp4,red,"[-1.0, 1.0, -1.0]",right,Countdown_1.5s.jpg,2,0,2,0,0,0,0,1,0,0,0,0,,,,,0,0,0,1,,,,,,,,192.98420440000154,187.41556300000047,188.29020220000166,0.8746392000011838,left,0,None,6,57:43,-2,0.8499971000001096,,,,,,,,,,,,,,,Rachel,2 - with skip,"57:43, 54:46","1.5s, 1.0s",2023-07-20_17h06.58.443,Rewa's Exp,2023.1.2,59.890783167402624,
Countdown_1s.mp4,"[-1.0, 1.0, -1.0]",red,left,Countdown_1s.jpg,2,0,2,0,0,0,0,1,0,1,1,3,,,,,0,0,0,1,,,,,,,,197.83705510000073,192.26863260000027,192.82319700000153,0.5545644000012544,left,1,None,7,57:43,1,0.5325658000001567,,,,,,,,,,,,,,,Rachel,2 - with skip,"57:43, 54:46","1.5s, 1.0s",2023-07-20_17h06.58.443,Rewa's Exp,2023.1.2,59.890783167402624,
Countdown_1.5s.mp4,"[-1.0, 1.0, -1.0]",red,left,Countdown_1.5s.jpg,2,0,2,0,0,0,0,1,0,2,2,2,,,,,0,0,0,1,,,,,,,,202.35492560000057,196.78621440000097,197.87313170000016,1.086917299999186,None,0,space,7,57:43,0,,,,,,,,,,,,,1.0538692999998602,,,Rachel,2 - with skip,"57:43, 54:46","1.5s, 1.0s",2023-07-20_17h06.58.443,Rewa's Exp,2023.1.2,59.890783167402624,
Countdown_1s.mp4,red,"[-1.0, 1.0, -1.0]",right,Countdown_1s.jpg,2,0,2,0,0,0,0,1,0,3,3,1,,,,,0,0,0,1,,,,,,,,207.36393640000097,201.7952253000003,202.5068521000012,0.7116268000008859,right,1,None,8,57:43,1,0.6859871999986353,,,,,,,,,,,,,,,Rachel,2 - with skip,"57:43, 54:46","1.5s, 1.0s",2023-07-20_17h06.58.443,Rewa's Exp,2023.1.2,59.890783167402624,
Countdown_1s.mp4,red,"[-1.0, 1.0, -1.0]",right,Countdown_1s.jpg,2,0,2,0,0,0,0,1,1,0,4,1,,,,,0,0,0,1,,,,,,,,212.0118067000003,206.44368730000133,206.99026910000066,0.5465817999993305,left,0,None,6,57:43,-2,0.5268527999996877,,,,,,,,,,,,,,,Rachel,2 - with skip,"57:43, 54:46","1.5s, 1.0s",2023-07-20_17h06.58.443,Rewa's Exp,2023.1.2,59.890783167402624,
Countdown_1s.mp4,"[-1.0, 1.0, -1.0]",red,left,Countdown_1s.jpg,2,0,2,0,0,0,0,1,1,1,5,3,,,,,0,0,0,1,,,,,,,,216.47557880000022,210.90687610000168,211.43983070000104,0.532954599999357,left,1,None,7,57:43,1,0.510100199999215,,,,,,,,,,,,,,,Rachel,2 - with skip,"57:43, 54:46","1.5s, 1.0s",2023-07-20_17h06.58.443,Rewa's Exp,2023.1.2,59.890783167402624,
Countdown_1.5s.mp4,red,"[-1.0, 1.0, -1.0]",right,Countdown_1.5s.jpg,2,0,2,0,0,0,0,1,1,2,6,0,,,,,0,0,0,1,,,,,,,,220.95779440000115,215.38916410000093,216.03990760000124,0.650743500000317,right,1,None,8,57:43,1,0.6277636999984679,,,,,,,,,,,,,,,Rachel,2 - with skip,"57:43, 54:46","1.5s, 1.0s",2023-07-20_17h06.58.443,Rewa's Exp,2023.1.2,59.890783167402624,
Countdown_1.5s.mp4,"[-1.0, 1.0, -1.0]",red,left,Countdown_1.5s.jpg,2,0,2,0,0,0,0,1,1,3,7,2,,,,,0,0,0,1,,,,,,,,225.5506390999999,219.98194760000115,220.9738019000015,0.991854300000341,None,0,space,8,57:43,0,,,,,,,,,,,,,0.9705089999988559,,,Rachel,2 - with skip,"57:43, 54:46","1.5s, 1.0s",2023-07-20_17h06.58.443,Rewa's Exp,2023.1.2,59.890783167402624,
Countdown_1s.mp4,"[-1.0, 1.0, -1.0]",red,left,Countdown_1s.jpg,2,0,2,0,0,0,0,1,,,,,0,0,0,3,0,0,0,1,,,,,,,,,224.92843730000095,225.67319360000147,0.7447563000005175,,,,9,54:46,1,,left,1,0.7217680999983713,None,,,,,,,,,,,Rachel,2 - with skip,"57:43, 54:46","1.5s, 1.0s",2023-07-20_17h06.58.443,Rewa's Exp,2023.1.2,59.890783167402624,
Countdown_1.5s.mp4,"[-1.0, 1.0, -1.0]",red,left,Countdown_1.5s.jpg,2,0,2,0,0,0,0,1,,,,,0,1,1,2,0,0,0,1,,,,,,,,,229.5645327000002,230.4231529000008,0.8586202000005869,,,,7,54:46,-2,,right,0,0.8282510999997612,None,,,,,,,,,,,Rachel,2 - with skip,"57:43, 54:46","1.5s, 1.0s",2023-07-20_17h06.58.443,Rewa's Exp,2023.1.2,59.890783167402624,
Countdown_1s.mp4,red,"[-1.0, 1.0, -1.0]",right,Countdown_1s.jpg,2,0,2,0,0,0,0,1,,,,,0,2,2,1,0,0,0,1,,,,,,,,,234.31371110000146,235.1066107000006,0.7928995999991457,,,,7,54:46,0,,None,0,,space,0.7659973999980139,,,,,,,,,,Rachel,2 - with skip,"57:43, 54:46","1.5s, 1.0s",2023-07-20_17h06.58.443,Rewa's Exp,2023.1.2,59.890783167402624,
Countdown_1.5s.mp4,red,"[-1.0, 1.0, -1.0]",right,Countdown_1.5s.jpg,2,0,2,0,0,0,0,1,,,,,0,3,3,0,0,0,0,1,,,,,,,,,239.06697820000045,240.02412600000025,0.9571477999998024,,,,8,54:46,1,,right,1,0.9254878999981884,None,,,,,,,,,,,Rachel,2 - with skip,"57:43, 54:46","1.5s, 1.0s",2023-07-20_17h06.58.443,Rewa's Exp,2023.1.2,59.890783167402624,
Countdown_1s.mp4,"[-1.0, 1.0, -1.0]",red,left,Countdown_1s.jpg,2,0,2,0,0,0,0,1,,,,,1,0,4,3,0,0,0,1,,,,,,,,,244.0219468000014,244.95650060000116,0.934553799999776,,,,9,54:46,1,,left,1,0.9068172999996023,None,,,,,,,,,,,Rachel,2 - with skip,"57:43, 54:46","1.5s, 1.0s",2023-07-20_17h06.58.443,Rewa's Exp,2023.1.2,59.890783167402624,
Countdown_1.5s.mp4,red,"[-1.0, 1.0, -1.0]",right,Countdown_1.5s.jpg,2,0,2,0,0,0,0,1,,,,,1,1,5,0,0,0,0,1,,,,,,,,,248.85212440000032,249.42336570000043,0.5712413000001106,,,,7,54:46,-2,,left,0,0.5490163999984361,None,,,,,,,,,,,Rachel,2 - with skip,"57:43, 54:46","1.5s, 1.0s",2023-07-20_17h06.58.443,Rewa's Exp,2023.1.2,59.890783167402624,
Countdown_1s.mp4,red,"[-1.0, 1.0, -1.0]",right,Countdown_1s.jpg,2,0,2,0,0,0,0,1,,,,,1,2,6,1,0,0,0,1,,,,,,,,,253.36656390000098,254.2901879000001,0.9236239999991085,,,,8,54:46,1,,right,1,0.8997098999989248,None,,,,,,,,,,,Rachel,2 - with skip,"57:43, 54:46","1.5s, 1.0s",2023-07-20_17h06.58.443,Rewa's Exp,2023.1.2,59.890783167402624,
Countdown_1.5s.mp4,"[-1.0, 1.0, -1.0]",red,left,Countdown_1.5s.jpg,2,0,2,0,0,0,0,1,,,,,1,3,7,2,0,0,0,1,,,,,,,,,258.23267210000085,258.85733860000073,0.6246664999998757,,,,9,54:46,1,,left,1,0.5920595999996294,None,,,,,,,,,,,Rachel,2 - with skip,"57:43, 54:46","1.5s, 1.0s",2023-07-20_17h06.58.443,Rewa's Exp,2023.1.2,59.890783167402624,
Countdown_1s.mp4,red,"[-1.0, 1.0, -1.0]",right,Countdown_1s.jpg,2,0,2,0,0,0,0,1,,,,,,,,,0,0,0,1,,,,,,,,,,,,,,,,,,,,,,,,265.58300990000134,265.58300990000134,265.58300990000134,265.58300990000134,space,1.6497369999979128,,,,Rachel,2 - with skip,"57:43, 54:46","1.5s, 1.0s",2023-07-20_17h06.58.443,Rewa's Exp,2023.1.2,59.890783167402624,
Countdown_1s.mp4,red,"[-1.0, 1.0, -1.0]",right,Countdown_1s.jpg,3,0,3,0,0,0,0,3,0,0,0,1,,,,,0,0,0,1,,,,,,,,270.013245600001,264.4446001000015,265.339947800001,0.8953476999995473,left,0,None,7,57:43,-2,0.868675899999289,,,,,,,,,,,,,,,Rachel,2 - with skip,"57:43, 54:46","1.5s, 1.0s",2023-07-20_17h06.58.443,Rewa's Exp,2023.1.2,59.890783167402624,
Countdown_1.5s.mp4,"[-1.0, 1.0, -1.0]",red,left,Countdown_1.5s.jpg,3,0,3,0,0,0,0,3,0,1,1,2,,,,,0,0,0,1,,,,,,,,274.8183850000005,269.2499093000006,269.8399427000004,0.5900333999998111,left,1,None,8,57:43,1,0.5585813999987295,,,,,,,,,,,,,,,Rachel,2 - with skip,"57:43, 54:46","1.5s, 1.0s",2023-07-20_17h06.58.443,Rewa's Exp,2023.1.2,59.890783167402624,
Countdown_1.5s.mp4,red,"[-1.0, 1.0, -1.0]",right,Countdown_1.5s.jpg,3,0,3,0,0,0,0,3,0,2,2,0,,,,,0,0,0,1,,,,,,,,279.32335500000045,273.75470160000077,274.4566891000013,0.7019875000005413,right,1,None,9,57:43,1,0.6695144999994227,,,,,,,,,,,,,,,Rachel,2 - with skip,"57:43, 54:46","1.5s, 1.0s",2023-07-20_17h06.58.443,Rewa's Exp,2023.1.2,59.890783167402624,
Countdown_1s.mp4,"[-1.0, 1.0, -1.0]",red,left,Countdown_1s.jpg,3,0,3,0,0,0,0,3,0,3,3,3,,,,,0,0,0,1,,,,,,,,283.9374136000006,278.3687009000005,279.07347130000016,0.7047703999996884,left,1,None,10,57:43,1,0.688282099998105,,,,,,,,,,,,,,,Rachel,2 - with skip,"57:43, 54:46","1.5s, 1.0s",2023-07-20_17h06.58.443,Rewa's Exp,2023.1.2,59.890783167402624,
Countdown_1s.mp4,"[-1.0, 1.0, -1.0]",red,left,Countdown_1s.jpg,3,0,3,0,0,0,0,3,1,0,4,3,,,,,0,0,0,1,,,,,,,,288.5576678000016,282.98905080000077,283.6067227000003,0.6176718999995501,left,1,None,11,57:43,1,0.5960048999986611,,,,,,,,,,,,,,,Rachel,2 - with skip,"57:43, 54:46","1.5s, 1.0s",2023-07-20_17h06.58.443,Rewa's Exp,2023.1.2,59.890783167402624,
Countdown_1.5s.mp4,red,"[-1.0, 1.0, -1.0]",right,Countdown_1.5s.jpg,3,0,3,0,0,0,0,3,1,1,5,0,,,,,0,0,0,1,,,,,,,,293.0688043000009,287.50009990000035,288.2570313000015,0.7569314000011218,None,0,space,11,57:43,0,,,,,,,,,,,,,0.7404356999995798,,,Rachel,2 - with skip,"57:43, 54:46","1.5s, 1.0s",2023-07-20_17h06.58.443,Rewa's Exp,2023.1.2,59.890783167402624,
Countdown_1s.mp4,red,"[-1.0, 1.0, -1.0]",right,Countdown_1s.jpg,3,0,3,0,0,0,0,3,1,2,6,1,,,,,0,0,0,1,,,,,,,,297.80374630000006,292.2351456000015,293.02361569999994,0.7884700999984489,left,0,None,9,57:43,-2,0.7571179999995366,,,,,,,,,,,,,,,Rachel,2 - with skip,"57:43, 54:46","1.5s, 1.0s",2023-07-20_17h06.58.443,Rewa's Exp,2023.1.2,59.890783167402624,
Countdown_1.5s.mp4,"[-1.0, 1.0, -1.0]",red,left,Countdown_1.5s.jpg,3,0,3,0,0,0,0,3,1,3,7,2,,,,,0,0,0,1,,,,,,,,302.52323290000095,296.9545855000015,297.7567321000006,0.8021465999991051,None,0,space,9,57:43,0,,,,,,,,,,,,,0.7741003999999521,,,Rachel,2 - with skip,"57:43, 54:46","1.5s, 1.0s",2023-07-20_17h06.58.443,Rewa's Exp,2023.1.2,59.890783167402624,
Countdown_1s.mp4,red,"[-1.0, 1.0, -1.0]",right,Countdown_1s.jpg,3,0,3,0,0,0,0,3,,,,,0,0,0,1,0,0,0,1,,,,,,,,,301.6889718000002,302.5236108000008,0.8346390000006068,,,,9,54:46,0,,None,0,,space,0.8071574999994482,,,,,,,,,,Rachel,2 - with skip,"57:43, 54:46","1.5s, 1.0s",2023-07-20_17h06.58.443,Rewa's Exp,2023.1.2,59.890783167402624,
Countdown_1s.mp4,"[-1.0, 1.0, -1.0]",red,left,Countdown_1s.jpg,3,0,3,0,0,0,0,3,,,,,0,1,1,3,0,0,0,1,,,,,,,,,306.4452986000015,307.12331950000043,0.6780208999989554,,,,10,54:46,1,,left,1,0.6518284999983734,None,,,,,,,,,,,Rachel,2 - with skip,"57:43, 54:46","1.5s, 1.0s",2023-07-20_17h06.58.443,Rewa's Exp,2023.1.2,59.890783167402624,
Countdown_1.5s.mp4,"[-1.0, 1.0, -1.0]",red,left,Countdown_1.5s.jpg,3,0,3,0,0,0,0,3,,,,,0,2,2,2,0,0,0,1,,,,,,,,,311.050571400001,311.8405244000005,0.7899529999995138,,,,11,54:46,1,,left,1,0.7589944999981526,None,,,,,,,,,,,Rachel,2 - with skip,"57:43, 54:46","1.5s, 1.0s",2023-07-20_17h06.58.443,Rewa's Exp,2023.1.2,59.890783167402624,
Countdown_1.5s.mp4,red,"[-1.0, 1.0, -1.0]",right,Countdown_1.5s.jpg,3,0,3,0,0,0,0,3,,,,,0,3,3,0,0,0,0,1,,,,,,,,,315.76277070000106,316.5900840000013,0.8273133000002417,,,,12,54:46,1,,right,1,0.8067254999987199,None,,,,,,,,,,,Rachel,2 - with skip,"57:43, 54:46","1.5s, 1.0s",2023-07-20_17h06.58.443,Rewa's Exp,2023.1.2,59.890783167402624,
Countdown_1.5s.mp4,"[-1.0, 1.0, -1.0]",red,left,Countdown_1.5s.jpg,3,0,3,0,0,0,0,3,,,,,1,0,4,2,0,0,0,1,,,,,,,,,320.51571740000145,321.22345250000035,0.7077350999988994,,,,13,54:46,1,,left,1,0.6844608999981574,None,,,,,,,,,,,Rachel,2 - with skip,"57:43, 54:46","1.5s, 1.0s",2023-07-20_17h06.58.443,Rewa's Exp,2023.1.2,59.890783167402624,
Countdown_1.5s.mp4,red,"[-1.0, 1.0, -1.0]",right,Countdown_1.5s.jpg,3,0,3,0,0,0,0,3,,,,,1,1,5,0,0,0,0,1,,,,,,,,,325.1618180000005,326.1403622000016,0.9785442000011244,,,,11,54:46,-2,,left,0,0.9593168999981572,None,,,,,,,,,,,Rachel,2 - with skip,"57:43, 54:46","1.5s, 1.0s",2023-07-20_17h06.58.443,Rewa's Exp,2023.1.2,59.890783167402624,
Countdown_1s.mp4,"[-1.0, 1.0, -1.0]",red,left,Countdown_1s.jpg,3,0,3,0,0,0,0,3,,,,,1,2,6,3,0,0,0,1,,,,,,,,,330.0545641000008,330.7901434000014,0.7355793000006088,,,,12,54:46,1,,left,1,0.7146004999995057,None,,,,,,,,,,,Rachel,2 - with skip,"57:43, 54:46","1.5s, 1.0s",2023-07-20_17h06.58.443,Rewa's Exp,2023.1.2,59.890783167402624,
Countdown_1s.mp4,red,"[-1.0, 1.0, -1.0]",right,Countdown_1s.jpg,3,0,3,0,0,0,0,3,,,,,1,3,7,1,0,0,0,1,,,,,,,,,334.6751815000007,335.6401620000015,0.96498050000082,,,,13,54:46,1,,right,1,0.9409976999995706,None,,,,,,,,,,,Rachel,2 - with skip,"57:43, 54:46","1.5s, 1.0s",2023-07-20_17h06.58.443,Rewa's Exp,2023.1.2,59.890783167402624,
Countdown_1s.mp4,red,"[-1.0, 1.0, -1.0]",right,Countdown_1s.jpg,3,0,3,0,0,0,0,3,,,,,,,,,0,0,0,1,,,,,,,,,,,,,,,,,,,,,,,,342.36598570000024,342.36598570000024,342.36598570000024,342.36598570000024,space,1.099902199999633,,,,Rachel,2 - with skip,"57:43, 54:46","1.5s, 1.0s",2023-07-20_17h06.58.443,Rewa's Exp,2023.1.2,59.890783167402624,
Countdown_1s.mp4,"[-1.0, 1.0, -1.0]",red,left,Countdown_1s.jpg,4,0,4,0,0,0,0,2,0,0,0,3,,,,,0,0,0,1,,,,,,,,346.2512104000016,340.6824981000009,341.356935400001,0.674437300000136,left,1,None,14,57:43,1,0.6466053999993164,,,,,,,,,,,,,,,Rachel,2 - with skip,"57:43, 54:46","1.5s, 1.0s",2023-07-20_17h06.58.443,Rewa's Exp,2023.1.2,59.890783167402624,
Countdown_1.5s.mp4,red,"[-1.0, 1.0, -1.0]",right,Countdown_1.5s.jpg,4,0,4,0,0,0,0,2,0,1,1,0,,,,,0,0,0,1,,,,,,,,350.8853058000004,345.3166809000013,346.14016230000016,0.8234813999988546,right,1,None,15,57:43,1,0.7972522000000026,,,,,,,,,,,,,,,Rachel,2 - with skip,"57:43, 54:46","1.5s, 1.0s",2023-07-20_17h06.58.443,Rewa's Exp,2023.1.2,59.890783167402624,
Countdown_1.5s.mp4,"[-1.0, 1.0, -1.0]",red,left,Countdown_1.5s.jpg,4,0,4,0,0,0,0,2,0,2,2,2,,,,,0,0,0,1,,,,,,,,355.6446784,350.07602990000123,350.8902339000015,0.8142040000002453,left,1,None,16,57:43,1,0.7973344000001816,,,,,,,,,,,,,,,Rachel,2 - with skip,"57:43, 54:46","1.5s, 1.0s",2023-07-20_17h06.58.443,Rewa's Exp,2023.1.2,59.890783167402624,
Countdown_1s.mp4,red,"[-1.0, 1.0, -1.0]",right,Countdown_1s.jpg,4,0,4,0,0,0,0,2,0,3,3,1,,,,,0,0,0,1,,,,,,,,360.4039072000014,354.8352919000008,355.59031700000014,0.7550250999993295,right,1,None,17,57:43,1,0.7256244000000152,,,,,,,,,,,,,,,Rachel,2 - with skip,"57:43, 54:46","1.5s, 1.0s",2023-07-20_17h06.58.443,Rewa's Exp,2023.1.2,59.890783167402624,
Countdown_1s.mp4,red,"[-1.0, 1.0, -1.0]",right,Countdown_1s.jpg,4,0,4,0,0,0,0,2,1,0,4,1,,,,,0,0,0,1,,,,,,,,365.1261134000015,359.55751370000144,360.50685760000124,0.9493438999998034,right,1,None,18,57:43,1,0.9245870999984618,,,,,,,,,,,,,,,Rachel,2 - with skip,"57:43, 54:46","1.5s, 1.0s",2023-07-20_17h06.58.443,Rewa's Exp,2023.1.2,59.890783167402624,
Countdown_1.5s.mp4,red,"[-1.0, 1.0, -1.0]",right,Countdown_1.5s.jpg,4,0,4,0,0,0,0,2,1,1,5,0,,,,,0,0,0,1,,,,,,,,370.00477520000095,364.4361535000007,365.3400905000017,0.9039370000009512,None,0,space,18,57:43,0,,,,,,,,,,,,,0.8852669999978389,,,Rachel,2 - with skip,"57:43, 54:46","1.5s, 1.0s",2023-07-20_17h06.58.443,Rewa's Exp,2023.1.2,59.890783167402624,
Countdown_1.5s.mp4,"[-1.0, 1.0, -1.0]",red,left,Countdown_1.5s.jpg,4,0,4,0,0,0,0,2,1,2,6,2,,,,,0,0,0,1,,,,,,,,374.81110310000076,369.24255280000034,369.89026360000025,0.6477107999999134,left,1,None,19,57:43,1,0.6229536999999254,,,,,,,,,,,,,,,Rachel,2 - with skip,"57:43, 54:46","1.5s, 1.0s",2023-07-20_17h06.58.443,Rewa's Exp,2023.1.2,59.890783167402624,
Countdown_1s.mp4,"[-1.0, 1.0, -1.0]",red,left,Countdown_1s.jpg,4,0,4,0,0,0,0,2,1,3,7,3,,,,,0,0,0,1,,,,,,,,379.35236630000145,373.78364050000164,374.6234267,0.8397861999983434,left,1,None,20,57:43,1,0.818561399999453,,,,,,,,,,,,,,,Rachel,2 - with skip,"57:43, 54:46","1.5s, 1.0s",2023-07-20_17h06.58.443,Rewa's Exp,2023.1.2,59.890783167402624,
Countdown_1s.mp4,red,"[-1.0, 1.0, -1.0]",right,Countdown_1s.jpg,4,0,4,0,0,0,0,2,,,,,0,0,0,1,0,0,0,1,,,,,,,,,378.53742990000137,379.3736263999999,0.8361964999985503,,,,21,54:46,1,,right,1,0.8151497999988351,None,,,,,,,,,,,Rachel,2 - with skip,"57:43, 54:46","1.5s, 1.0s",2023-07-20_17h06.58.443,Rewa's Exp,2023.1.2,59.890783167402624,
Countdown_1.5s.mp4,red,"[-1.0, 1.0, -1.0]",right,Countdown_1.5s.jpg,4,0,4,0,0,0,0,2,,,,,0,1,1,0,0,0,0,1,,,,,,,,,383.3493416000001,384.2905987000013,0.9412571000011667,,,,22,54:46,1,,right,1,0.908427299998948,None,,,,,,,,,,,Rachel,2 - with skip,"57:43, 54:46","1.5s, 1.0s",2023-07-20_17h06.58.443,Rewa's Exp,2023.1.2,59.890783167402624,
Countdown_1s.mp4,"[-1.0, 1.0, -1.0]",red,left,Countdown_1s.jpg,4,0,4,0,0,0,0,2,,,,,0,2,2,3,0,0,0,1,,,,,,,,,388.2173845000016,389.1902351000008,0.9728505999992194,,,,23,54:46,1,,left,1,0.9519218999994337,None,,,,,,,,,,,Rachel,2 - with skip,"57:43, 54:46","1.5s, 1.0s",2023-07-20_17h06.58.443,Rewa's Exp,2023.1.2,59.890783167402624,
Countdown_1.5s.mp4,"[-1.0, 1.0, -1.0]",red,left,Countdown_1.5s.jpg,4,0,4,0,0,0,0,2,,,,,0,3,3,2,0,0,0,1,,,,,,,,,393.09403960000054,393.9070636000015,0.8130240000009508,,,,21,54:46,-2,,right,0,0.7948909999995522,None,,,,,,,,,,,Rachel,2 - with skip,"57:43, 54:46","1.5s, 1.0s",2023-07-20_17h06.58.443,Rewa's Exp,2023.1.2,59.890783167402624,
Countdown_1s.mp4,"[-1.0, 1.0, -1.0]",red,left,Countdown_1s.jpg,4,0,4,0,0,0,0,2,,,,,1,0,4,3,0,0,0,1,,,,,,,,,397.8434692999999,398.72360330000083,0.8801340000009077,,,,19,54:46,-2,,right,0,0.8535854999990988,None,,,,,,,,,,,Rachel,2 - with skip,"57:43, 54:46","1.5s, 1.0s",2023-07-20_17h06.58.443,Rewa's Exp,2023.1.2,59.890783167402624,
Countdown_1s.mp4,red,"[-1.0, 1.0, -1.0]",right,Countdown_1s.jpg,4,0,4,0,0,0,0,2,,,,,1,1,5,1,0,0,0,1,,,,,,,,,402.6405863,403.3571486000001,0.7165623000000778,,,,19,54:46,0,,None,0,,space,0.6958244999987073,,,,,,,,,,Rachel,2 - with skip,"57:43, 54:46","1.5s, 1.0s",2023-07-20_17h06.58.443,Rewa's Exp,2023.1.2,59.890783167402624,
Countdown_1.5s.mp4,"[-1.0, 1.0, -1.0]",red,left,Countdown_1.5s.jpg,4,0,4,0,0,0,0,2,,,,,1,2,6,2,0,0,0,1,,,,,,,,,407.3215753000004,408.18125130000044,0.8596760000000359,,,,20,54:46,1,,left,1,0.8228696999995009,None,,,,,,,,,,,Rachel,2 - with skip,"57:43, 54:46","1.5s, 1.0s",2023-07-20_17h06.58.443,Rewa's Exp,2023.1.2,59.890783167402624,
Countdown_1.5s.mp4,red,"[-1.0, 1.0, -1.0]",right,Countdown_1.5s.jpg,4,0,4,0,0,0,0,2,,,,,1,3,7,0,0,0,0,1,,,,,,,,,412.12547910000103,412.87392290000025,0.7484437999992224,,,,21,54:46,1,,right,1,0.7316038999997545,None,,,,,,,,,,,Rachel,2 - with skip,"57:43, 54:46","1.5s, 1.0s",2023-07-20_17h06.58.443,Rewa's Exp,2023.1.2,59.890783167402624,
Countdown_1.5s.mp4,red,"[-1.0, 1.0, -1.0]",right,Countdown_1.5s.jpg,4,0,4,0,0,0,0,2,,,,,,,,,0,0,0,0,,,,,,,,,,,,,,,,,,,,,,,,419.6082126000001,419.6082126000001,419.6082126000001,419.6082126000001,space,2.937095199999021,,,,Rachel,2 - with skip,"57:43, 54:46","1.5s, 1.0s",2023-07-20_17h06.58.443,Rewa's Exp,2023.1.2,59.890783167402624,
Countdown_1s.mp4,"[-1.0, 1.0, -1.0]",red,left,Countdown_1s.jpg,5,0,5,0,0,0,0,0,0,0,0,3,,,,,0,0,0,0,,,,,,,,425.37829690000035,419.8097860000016,420.50693480000155,0.6971487999999226,left,1,None,22,57:43,1,0.6717449999996461,,,,,,,,,,,,,,,Rachel,2 - with skip,"57:43, 54:46","1.5s, 1.0s",2023-07-20_17h06.58.443,Rewa's Exp,2023.1.2,59.890783167402624,
Countdown_1.5s.mp4,"[-1.0, 1.0, -1.0]",red,left,Countdown_1.5s.jpg,5,0,5,0,0,0,0,0,0,1,1,2,,,,,0,0,0,0,,,,,,,,429.9791433999999,424.4104944999999,425.1739905000013,0.7634960000013962,left,1,None,23,57:43,1,0.7341285999991669,,,,,,,,,,,,,,,Rachel,2 - with skip,"57:43, 54:46","1.5s, 1.0s",2023-07-20_17h06.58.443,Rewa's Exp,2023.1.2,59.890783167402624,
Countdown_1.5s.mp4,red,"[-1.0, 1.0, -1.0]",right,Countdown_1.5s.jpg,5,0,5,0,0,0,0,0,0,2,2,0,,,,,0,0,0,0,,,,,,,,434.65366840000024,429.08505890000015,430.07403570000133,0.9889768000011827,right,1,None,24,57:43,1,0.9558811999995669,,,,,,,,,,,,,,,Rachel,2 - with skip,"57:43, 54:46","1.5s, 1.0s",2023-07-20_17h06.58.443,Rewa's Exp,2023.1.2,59.890783167402624,
Countdown_1s.mp4,red,"[-1.0, 1.0, -1.0]",right,Countdown_1s.jpg,5,0,5,0,0,0,0,0,0,3,3,1,,,,,0,0,0,0,,,,,,,,439.55558010000095,433.9869793000016,434.7737788000013,0.7867994999996881,right,1,None,25,57:43,1,0.7581281999991916,,,,,,,,,,,,,,,Rachel,2 - with skip,"57:43, 54:46","1.5s, 1.0s",2023-07-20_17h06.58.443,Rewa's Exp,2023.1.2,59.890783167402624,
Countdown_1.5s.mp4,red,"[-1.0, 1.0, -1.0]",right,Countdown_1.5s.jpg,5,0,5,0,0,0,0,0,1,0,4,0,,,,,0,0,0,0,,,,,,,,444.26931120000154,438.70081590000154,439.44094290000066,0.74012699999912,right,1,None,26,57:43,1,0.7081811999996717,,,,,,,,,,,,,,,Rachel,2 - with skip,"57:43, 54:46","1.5s, 1.0s",2023-07-20_17h06.58.443,Rewa's Exp,2023.1.2,59.890783167402624,
Countdown_1.5s.mp4,"[-1.0, 1.0, -1.0]",red,left,Countdown_1.5s.jpg,5,0,5,0,0,0,0,0,1,1,5,2,,,,,0,0,0,0,,,,,,,,448.90431290000015,443.3358122000009,443.9405080000015,0.6046958000006271,left,1,None,27,57:43,1,0.5768377000003966,,,,,,,,,,,,,,,Rachel,2 - with skip,"57:43, 54:46","1.5s, 1.0s",2023-07-20_17h06.58.443,Rewa's Exp,2023.1.2,59.890783167402624,
Countdown_1s.mp4,red,"[-1.0, 1.0, -1.0]",right,Countdown_1s.jpg,5,0,5,0,0,0,0,0,1,2,6,1,,,,,0,0,0,0,,,,,,,,453.45726260000083,447.8885796000013,448.72371060000114,0.8351309999998193,right,1,None,28,57:43,1,0.8091991999990569,,,,,,,,,,,,,,,Rachel,2 - with skip,"57:43, 54:46","1.5s, 1.0s",2023-07-20_17h06.58.443,Rewa's Exp,2023.1.2,59.890783167402624,
Countdown_1s.mp4,"[-1.0, 1.0, -1.0]",red,left,Countdown_1s.jpg,5,0,5,0,0,0,0,0,1,3,7,3,,,,,0,0,0,0,,,,,,,,458.25280310000016,452.6841319000014,453.5403531000011,0.8562211999997089,right,0,None,26,57:43,-2,0.8377772999992885,,,,,,,,,,,,,,,Rachel,2 - with skip,"57:43, 54:46","1.5s, 1.0s",2023-07-20_17h06.58.443,Rewa's Exp,2023.1.2,59.890783167402624,
Countdown_1s.mp4,"[-1.0, 1.0, -1.0]",red,left,Countdown_1s.jpg,5,0,5,0,0,0,0,0,,,,,0,0,0,3,0,0,0,0,,,,,,,,,457.4448387000011,458.0404032000006,0.5955644999994547,,,,27,54:46,1,,left,1,0.5635626999992382,None,,,,,,,,,,,Rachel,2 - with skip,"57:43, 54:46","1.5s, 1.0s",2023-07-20_17h06.58.443,Rewa's Exp,2023.1.2,59.890783167402624,
Countdown_1.5s.mp4,red,"[-1.0, 1.0, -1.0]",right,Countdown_1.5s.jpg,5,0,5,0,0,0,0,0,,,,,0,1,1,0,0,0,0,0,,,,,,,,,462.01715310000145,462.97380350000094,0.9566503999994893,,,,28,54:46,1,,right,1,0.9372164999986126,None,,,,,,,,,,,Rachel,2 - with skip,"57:43, 54:46","1.5s, 1.0s",2023-07-20_17h06.58.443,Rewa's Exp,2023.1.2,59.890783167402624,
Countdown_1s.mp4,red,"[-1.0, 1.0, -1.0]",right,Countdown_1s.jpg,5,0,5,0,0,0,0,0,,,,,0,2,2,1,0,0,0,0,,,,,,,,,466.89079610000044,467.75697020000007,0.8661740999996255,,,,26,54:46,-2,,left,0,0.8470367999998416,None,,,,,,,,,,,Rachel,2 - with skip,"57:43, 54:46","1.5s, 1.0s",2023-07-20_17h06.58.443,Rewa's Exp,2023.1.2,59.890783167402624,
Countdown_1.5s.mp4,"[-1.0, 1.0, -1.0]",red,left,Countdown_1.5s.jpg,5,0,5,0,0,0,0,0,,,,,0,3,3,2,0,0,0,0,,,,,,,,,471.6514788000004,472.25703240000075,0.6055536000003485,,,,27,54:46,1,,left,1,0.5735398999986501,None,,,,,,,,,,,Rachel,2 - with skip,"57:43, 54:46","1.5s, 1.0s",2023-07-20_17h06.58.443,Rewa's Exp,2023.1.2,59.890783167402624,
Countdown_1.5s.mp4,"[-1.0, 1.0, -1.0]",red,left,Countdown_1.5s.jpg,5,0,5,0,0,0,0,0,,,,,1,0,4,2,0,0,0,0,,,,,,,,,476.16922049999994,477.2236580000008,1.0544375000008586,,,,27,54:46,0,,None,0,,space,1.0320790999994642,,,,,,,,,,Rachel,2 - with skip,"57:43, 54:46","1.5s, 1.0s",2023-07-20_17h06.58.443,Rewa's Exp,2023.1.2,59.890783167402624,
Countdown_1.5s.mp4,red,"[-1.0, 1.0, -1.0]",right,Countdown_1.5s.jpg,5,0,5,0,0,0,0,0,,,,,1,1,5,0,0,0,0,0,,,,,,,,,481.10920970000006,482.0907141000007,0.981504400000631,,,,27,54:46,0,,None,0,,space,0.963209999998071,,,,,,,,,,Rachel,2 - with skip,"57:43, 54:46","1.5s, 1.0s",2023-07-20_17h06.58.443,Rewa's Exp,2023.1.2,59.890783167402624,
Countdown_1s.mp4,"[-1.0, 1.0, -1.0]",red,left,Countdown_1s.jpg,5,0,5,0,0,0,0,0,,,,,1,2,6,3,0,0,0,0,,,,,,,,,485.974285100001,486.5903828999999,0.6160977999988972,,,,28,54:46,1,,left,1,0.5946825999981229,None,,,,,,,,,,,Rachel,2 - with skip,"57:43, 54:46","1.5s, 1.0s",2023-07-20_17h06.58.443,Rewa's Exp,2023.1.2,59.890783167402624,
Countdown_1s.mp4,red,"[-1.0, 1.0, -1.0]",right,Countdown_1s.jpg,5,0,5,0,0,0,0,0,,,,,1,3,7,1,0,0,0,0,,,,,,,,,490.48953299999994,491.40717250000125,0.9176395000013144,,,,29,54:46,1,,right,1,0.8954322999998112,None,,,,,,,,,,,Rachel,2 - with skip,"57:43, 54:46","1.5s, 1.0s",2023-07-20_17h06.58.443,Rewa's Exp,2023.1.2,59.890783167402624,
Countdown_1.5s.mp4,"[-1.0, 1.0, -1.0]",red,left,Countdown_1.5s.jpg,5,0,5,0,0,0,0,0,,,,,,,,,0,0,0,2,,,,,,,,,,,,,,,,,,,,,,,,498.1244327000004,498.1244327000004,498.1244327000004,498.1244327000004,space,0.9577345999987301,,,,Rachel,2 - with skip,"57:43, 54:46","1.5s, 1.0s",2023-07-20_17h06.58.443,Rewa's Exp,2023.1.2,59.890783167402624,
Countdown_1.5s.mp4,red,"[-1.0, 1.0, -1.0]",right,Countdown_1.5s.jpg,6,0,6,0,0,0,0,1,0,0,0,0,,,,,0,0,0,2,,,,,,,,501.89820240000154,496.3295123000007,497.4068849000014,1.0773726000006718,None,0,space,29,57:43,0,,,,,,,,,,,,,1.0468170999993163,,,Rachel,2 - with skip,"57:43, 54:46","1.5s, 1.0s",2023-07-20_17h06.58.443,Rewa's Exp,2023.1.2,59.890783167402624,
Countdown_1s.mp4,"[-1.0, 1.0, -1.0]",red,left,Countdown_1s.jpg,6,0,6,0,0,0,0,1,0,1,1,3,,,,,0,0,0,2,,,,,,,,506.89717310000015,501.3285444000012,501.94057910000083,0.61203469999964,left,1,None,30,57:43,1,0.5923241000000417,,,,,,,,,,,,,,,Rachel,2 - with skip,"57:43, 54:46","1.5s, 1.0s",2023-07-20_17h06.58.443,Rewa's Exp,2023.1.2,59.890783167402624,
Countdown_1s.mp4,red,"[-1.0, 1.0, -1.0]",right,Countdown_1s.jpg,6,0,6,0,0,0,0,1,0,2,2,1,,,,,0,0,0,2,,,,,,,,511.45917250000093,505.89060380000046,506.5238827000012,0.6332789000007324,right,1,None,31,57:43,1,0.615344499999992,,,,,,,,,,,,,,,Rachel,2 - with skip,"57:43, 54:46","1.5s, 1.0s",2023-07-20_17h06.58.443,Rewa's Exp,2023.1.2,59.890783167402624,
Countdown_1.5s.mp4,"[-1.0, 1.0, -1.0]",red,left,Countdown_1.5s.jpg,6,0,6,0,0,0,0,1,0,3,3,2,,,,,0,0,0,2,,,,,,,,516.0655975000009,510.4969185000009,511.14046899999994,0.6435504999990371,left,1,None,32,57:43,1,0.6159254999984114,,,,,,,,,,,,,,,Rachel,2 - with skip,"57:43, 54:46","1.5s, 1.0s",2023-07-20_17h06.58.443,Rewa's Exp,2023.1.2,59.890783167402624,
Countdown_1.5s.mp4,"[-1.0, 1.0, -1.0]",red,left,Countdown_1.5s.jpg,6,0,6,0,0,0,0,1,1,0,4,2,,,,,0,0,0,2,,,,,,,,520.6282649000004,515.0596124000003,515.6238347000017,0.5642223000013473,left,1,None,33,57:43,1,0.5415250999994896,,,,,,,,,,,,,,,Rachel,2 - with skip,"57:43, 54:46","1.5s, 1.0s",2023-07-20_17h06.58.443,Rewa's Exp,2023.1.2,59.890783167402624,
Countdown_1.5s.mp4,red,"[-1.0, 1.0, -1.0]",right,Countdown_1.5s.jpg,6,0,6,0,0,0,0,1,1,1,5,0,,,,,0,0,0,2,,,,,,,,525.1055315000012,519.5368925000002,520.2909034000004,0.7540109000001394,right,1,None,34,57:43,1,0.7286731999993208,,,,,,,,,,,,,,,Rachel,2 - with skip,"57:43, 54:46","1.5s, 1.0s",2023-07-20_17h06.58.443,Rewa's Exp,2023.1.2,59.890783167402624,
Countdown_1s.mp4,"[-1.0, 1.0, -1.0]",red,left,Countdown_1s.jpg,6,0,6,0,0,0,0,1,1,2,6,3,,,,,0,0,0,2,,,,,,,,529.8224492000008,524.2538872000005,525.057047100001,0.8031599000005372,None,0,space,34,57:43,0,,,,,,,,,,,,,0.7704228999991756,,,Rachel,2 - with skip,"57:43, 54:46","1.5s, 1.0s",2023-07-20_17h06.58.443,Rewa's Exp,2023.1.2,59.890783167402624,
Countdown_1s.mp4,red,"[-1.0, 1.0, -1.0]",right,Countdown_1s.jpg,6,0,6,0,0,0,0,1,1,3,7,1,,,,,0,0,0,2,,,,,,,,534.5399426000004,528.9713498000001,529.8405276000012,0.8691778000011254,right,1,None,35,57:43,1,0.8371982999979082,,,,,,,,,,,,,,,Rachel,2 - with skip,"57:43, 54:46","1.5s, 1.0s",2023-07-20_17h06.58.443,Rewa's Exp,2023.1.2,59.890783167402624,
Countdown_1s.mp4,red,"[-1.0, 1.0, -1.0]",right,Countdown_1s.jpg,6,0,6,0,0,0,0,1,,,,,0,0,0,1,0,0,0,2,,,,,,,,,533.7688369000007,534.6407060000001,0.8718690999994578,,,,36,54:46,1,,right,1,0.8479624999981752,None,,,,,,,,,,,Rachel,2 - with skip,"57:43, 54:46","1.5s, 1.0s",2023-07-20_17h06.58.443,Rewa's Exp,2023.1.2,59.890783167402624,
Countdown_1.5s.mp4,"[-1.0, 1.0, -1.0]",red,left,Countdown_1.5s.jpg,6,0,6,0,0,0,0,1,,,,,0,1,1,2,0,0,0,2,,,,,,,,,538.5930861000015,539.407169600001,0.8140834999994695,,,,36,54:46,0,,None,0,,space,0.7835950999997294,,,,,,,,,,Rachel,2 - with skip,"57:43, 54:46","1.5s, 1.0s",2023-07-20_17h06.58.443,Rewa's Exp,2023.1.2,59.890783167402624,
Countdown_1s.mp4,"[-1.0, 1.0, -1.0]",red,left,Countdown_1s.jpg,6,0,6,0,0,0,0,1,,,,,0,2,2,3,0,0,0,2,,,,,,,,,543.3101619000008,544.1740016000003,0.8638396999995166,,,,36,54:46,0,,None,0,,space,0.8428304999997636,,,,,,,,,,Rachel,2 - with skip,"57:43, 54:46","1.5s, 1.0s",2023-07-20_17h06.58.443,Rewa's Exp,2023.1.2,59.890783167402624,
Countdown_1.5s.mp4,red,"[-1.0, 1.0, -1.0]",right,Countdown_1.5s.jpg,6,0,6,0,0,0,0,1,,,,,0,3,3,0,0,0,0,2,,,,,,,,,548.1107554000009,548.8071405999999,0.6963851999989856,,,,37,54:46,1,,right,1,0.6656712000003608,None,,,,,,,,,,,Rachel,2 - with skip,"57:43, 54:46","1.5s, 1.0s",2023-07-20_17h06.58.443,Rewa's Exp,2023.1.2,59.890783167402624,
Countdown_1.5s.mp4,"[-1.0, 1.0, -1.0]",red,left,Countdown_1.5s.jpg,6,0,6,0,0,0,0,1,,,,,1,0,4,2,0,0,0,2,,,,,,,,,552.7066414000001,553.4581890000009,0.7515476000007766,,,,38,54:46,1,,left,1,0.7185745999995561,None,,,,,,,,,,,Rachel,2 - with skip,"57:43, 54:46","1.5s, 1.0s",2023-07-20_17h06.58.443,Rewa's Exp,2023.1.2,59.890783167402624,
Countdown_1.5s.mp4,red,"[-1.0, 1.0, -1.0]",right,Countdown_1.5s.jpg,6,0,6,0,0,0,0,1,,,,,1,1,5,0,0,0,0,2,,,,,,,,,557.3856222000013,558.2579480000004,0.8723257999990892,,,,36,54:46,-2,,left,0,0.8490487999988545,None,,,,,,,,,,,Rachel,2 - with skip,"57:43, 54:46","1.5s, 1.0s",2023-07-20_17h06.58.443,Rewa's Exp,2023.1.2,59.890783167402624,
Countdown_1s.mp4,"[-1.0, 1.0, -1.0]",red,left,Countdown_1s.jpg,6,0,6,0,0,0,0,1,,,,,1,2,6,3,0,0,0,2,,,,,,,,,562.1810511000003,562.9238991000002,0.7428479999998672,,,,34,54:46,-2,,right,0,0.7247424999986833,None,,,,,,,,,,,Rachel,2 - with skip,"57:43, 54:46","1.5s, 1.0s",2023-07-20_17h06.58.443,Rewa's Exp,2023.1.2,59.890783167402624,
Countdown_1s.mp4,red,"[-1.0, 1.0, -1.0]",right,Countdown_1s.jpg,6,0,6,0,0,0,0,1,,,,,1,3,7,1,0,0,0,2,,,,,,,,,566.8228943000013,567.7906083000016,0.9677140000003419,,,,34,54:46,0,,None,0,,space,0.9459888000001229,,,,,,,,,,Rachel,2 - with skip,"57:43, 54:46","1.5s, 1.0s",2023-07-20_17h06.58.443,Rewa's Exp,2023.1.2,59.890783167402624,
Countdown_1s.mp4,red,"[-1.0, 1.0, -1.0]",right,Countdown_1s.jpg,6,0,6,0,0,0,0,1,,,,,,,,,0,0,0,1,,,,,,,,,,,,,,,,,,,,,,,,574.5133554000004,574.5133554000004,574.5133554000004,574.5133554000004,space,6.233001099999456,,,,Rachel,2 - with skip,"57:43, 54:46","1.5s, 1.0s",2023-07-20_17h06.58.443,Rewa's Exp,2023.1.2,59.890783167402624,
Countdown_1.5s.mp4,red,"[-1.0, 1.0, -1.0]",right,Countdown_1.5s.jpg,7,0,7,0,0,0,0,1,0,0,0,0,,,,,0,0,0,1,,,,,,,,583.5414562000005,577.9728729000017,578.9572562000012,0.9843832999995357,left,0,None,32,57:43,-2,0.9559264999988955,,,,,,,,,,,,,,,Rachel,2 - with skip,"57:43, 54:46","1.5s, 1.0s",2023-07-20_17h06.58.443,Rewa's Exp,2023.1.2,59.890783167402624,
Countdown_1s.mp4,"[-1.0, 1.0, -1.0]",red,left,Countdown_1s.jpg,7,0,7,0,0,0,0,1,0,1,1,3,,,,,0,0,0,1,,,,,,,,588.4152623000009,582.846590000001,583.6407798,0.7941897999990033,left,1,None,33,57:43,1,0.7709411999985605,,,,,,,,,,,,,,,Rachel,2 - with skip,"57:43, 54:46","1.5s, 1.0s",2023-07-20_17h06.58.443,Rewa's Exp,2023.1.2,59.890783167402624,
Countdown_1s.mp4,red,"[-1.0, 1.0, -1.0]",right,Countdown_1s.jpg,7,0,7,0,0,0,0,1,0,2,2,1,,,,,0,0,0,1,,,,,,,,593.1756301000005,587.6070155000016,588.2574617000009,0.6504461999993509,right,1,None,34,57:43,1,0.6268906999994215,,,,,,,,,,,,,,,Rachel,2 - with skip,"57:43, 54:46","1.5s, 1.0s",2023-07-20_17h06.58.443,Rewa's Exp,2023.1.2,59.890783167402624,
Countdown_1.5s.mp4,"[-1.0, 1.0, -1.0]",red,left,Countdown_1.5s.jpg,7,0,7,0,0,0,0,1,0,3,3,2,,,,,0,0,0,1,,,,,,,,597.7762399000003,592.2077215000008,592.8073622000011,0.5996407000002364,left,1,None,35,57:43,1,0.5691681999996945,,,,,,,,,,,,,,,Rachel,2 - with skip,"57:43, 54:46","1.5s, 1.0s",2023-07-20_17h06.58.443,Rewa's Exp,2023.1.2,59.890783167402624,
Countdown_1.5s.mp4,red,"[-1.0, 1.0, -1.0]",right,Countdown_1.5s.jpg,7,0,7,0,0,0,0,1,1,0,4,0,,,,,0,0,0,1,,,,,,,,602.2908453,596.7221464000013,597.3575278000008,0.63538139999946,right,1,None,36,57:43,1,0.6156301999981224,,,,,,,,,,,,,,,Rachel,2 - with skip,"57:43, 54:46","1.5s, 1.0s",2023-07-20_17h06.58.443,Rewa's Exp,2023.1.2,59.890783167402624,
Countdown_1s.mp4,"[-1.0, 1.0, -1.0]",red,left,Countdown_1s.jpg,7,0,7,0,0,0,0,1,1,1,5,3,,,,,0,0,0,1,,,,,,,,606.8917251000003,601.3230532000016,601.9740857000015,0.6510324999999284,left,1,None,37,57:43,1,0.6299990999996226,,,,,,,,,,,,,,,Rachel,2 - with skip,"57:43, 54:46","1.5s, 1.0s",2023-07-20_17h06.58.443,Rewa's Exp,2023.1.2,59.890783167402624,
Countdown_1s.mp4,red,"[-1.0, 1.0, -1.0]",right,Countdown_1s.jpg,7,0,7,0,0,0,0,1,1,2,6,1,,,,,0,0,0,1,,,,,,,,611.4969349000003,605.9282582000014,606.6073531000002,0.679094899998745,right,1,None,38,57:43,1,0.6481321999999636,,,,,,,,,,,,,,,Rachel,2 - with skip,"57:43, 54:46","1.5s, 1.0s",2023-07-20_17h06.58.443,Rewa's Exp,2023.1.2,59.890783167402624,
Countdown_1.5s.mp4,"[-1.0, 1.0, -1.0]",red,left,Countdown_1.5s.jpg,7,0,7,0,0,0,0,1,1,3,7,2,,,,,0,0,0,1,,,,,,,,616.0907826000002,610.5221322000016,611.1240081000014,0.6018758999998681,left,1,None,39,57:43,1,0.5834144999989803,,,,,,,,,,,,,,,Rachel,2 - with skip,"57:43, 54:46","1.5s, 1.0s",2023-07-20_17h06.58.443,Rewa's Exp,2023.1.2,59.890783167402624,
Countdown_1.5s.mp4,"[-1.0, 1.0, -1.0]",red,left,Countdown_1.5s.jpg,7,0,7,0,0,0,0,1,,,,,0,0,0,2,0,0,0,1,,,,,,,,,615.0402926000006,615.8407159000017,0.8004233000010572,,,,37,54:46,-2,,right,0,0.7682737999984965,None,,,,,,,,,,,Rachel,2 - with skip,"57:43, 54:46","1.5s, 1.0s",2023-07-20_17h06.58.443,Rewa's Exp,2023.1.2,59.890783167402624,
Countdown_1.5s.mp4,red,"[-1.0, 1.0, -1.0]",right,Countdown_1.5s.jpg,7,0,7,0,0,0,0,1,,,,,0,1,1,0,0,0,0,1,,,,,,,,,619.7513743,620.6740874000006,0.9227131000006921,,,,37,54:46,0,,None,0,,space,0.8979154999997263,,,,,,,,,,Rachel,2 - with skip,"57:43, 54:46","1.5s, 1.0s",2023-07-20_17h06.58.443,Rewa's Exp,2023.1.2,59.890783167402624,
Countdown_1s.mp4,"[-1.0, 1.0, -1.0]",red,left,Countdown_1s.jpg,7,0,7,0,0,0,0,1,,,,,0,2,2,3,0,0,0,1,,,,,,,,,624.5819546000002,625.2575663000007,0.6756117000004451,,,,38,54:46,1,,left,1,0.643138799998269,None,,,,,,,,,,,Rachel,2 - with skip,"57:43, 54:46","1.5s, 1.0s",2023-07-20_17h06.58.443,Rewa's Exp,2023.1.2,59.890783167402624,
Countdown_1s.mp4,red,"[-1.0, 1.0, -1.0]",right,Countdown_1s.jpg,7,0,7,0,0,0,0,1,,,,,0,3,3,1,0,0,0,1,,,,,,,,,629.2222064000016,630.0907291000003,0.8685226999987208,,,,36,54:46,-2,,left,0,0.8505004999988159,None,,,,,,,,,,,Rachel,2 - with skip,"57:43, 54:46","1.5s, 1.0s",2023-07-20_17h06.58.443,Rewa's Exp,2023.1.2,59.890783167402624,
Countdown_1s.mp4,"[-1.0, 1.0, -1.0]",red,left,Countdown_1s.jpg,7,0,7,0,0,0,0,1,,,,,1,0,4,3,0,0,0,1,,,,,,,,,634.0162397000004,634.7407443000011,0.7245046000007278,,,,34,54:46,-2,,right,0,0.697283299999981,None,,,,,,,,,,,Rachel,2 - with skip,"57:43, 54:46","1.5s, 1.0s",2023-07-20_17h06.58.443,Rewa's Exp,2023.1.2,59.890783167402624,
Countdown_1.5s.mp4,red,"[-1.0, 1.0, -1.0]",right,Countdown_1.5s.jpg,7,0,7,0,0,0,0,1,,,,,1,1,5,0,0,0,0,1,,,,,,,,,638.6531904000003,639.5407009999999,0.8875105999995867,,,,34,54:46,0,,None,0,,space,0.8590073999985179,,,,,,,,,,Rachel,2 - with skip,"57:43, 54:46","1.5s, 1.0s",2023-07-20_17h06.58.443,Rewa's Exp,2023.1.2,59.890783167402624,
Countdown_1s.mp4,red,"[-1.0, 1.0, -1.0]",right,Countdown_1s.jpg,7,0,7,0,0,0,0,1,,,,,1,2,6,1,0,0,0,1,,,,,,,,,643.4887586000004,644.1243450000002,0.6355863999997382,,,,35,54:46,1,,right,1,0.6165992999995069,None,,,,,,,,,,,Rachel,2 - with skip,"57:43, 54:46","1.5s, 1.0s",2023-07-20_17h06.58.443,Rewa's Exp,2023.1.2,59.890783167402624,
Countdown_1.5s.mp4,"[-1.0, 1.0, -1.0]",red,left,Countdown_1.5s.jpg,7,0,7,0,0,0,0,1,,,,,1,3,7,2,0,0,0,1,,,,,,,,,648.0867030000009,648.7241359,0.6374328999991121,,,,36,54:46,1,,left,1,0.6196583000000828,None,,,,,,,,,,,Rachel,2 - with skip,"57:43, 54:46","1.5s, 1.0s",2023-07-20_17h06.58.443,Rewa's Exp,2023.1.2,59.890783167402624,
Countdown_1.5s.mp4,red,"[-1.0, 1.0, -1.0]",right,Countdown_1.5s.jpg,7,0,7,0,0,0,0,1,,,,,,,,,0,0,0,0,,,,,,,,,,,,,,,,,,,,,,,,655.450702600001,655.450702600001,655.450702600001,655.450702600001,space,1.0311273999996047,,,,Rachel,2 - with skip,"57:43, 54:46","1.5s, 1.0s",2023-07-20_17h06.58.443,Rewa's Exp,2023.1.2,59.890783167402624,
Countdown_1s.mp4,"[-1.0, 1.0, -1.0]",red,left,Countdown_1s.jpg,8,0,8,0,0,0,0,2,0,0,0,3,,,,,0,0,0,0,,,,,,,,659.292480600001,653.7238076000012,654.3407759000002,0.6169682999989163,left,1,None,37,57:43,1,0.5976506999995763,,,,,,,,,,,,,,,Rachel,2 - with skip,"57:43, 54:46","1.5s, 1.0s",2023-07-20_17h06.58.443,Rewa's Exp,2023.1.2,59.890783167402624,
Countdown_1s.mp4,red,"[-1.0, 1.0, -1.0]",right,Countdown_1s.jpg,8,0,8,0,0,0,0,2,0,1,1,1,,,,,0,0,0,0,,,,,,,,663.8075525000004,658.2388740000006,658.9917695000004,0.752895499999795,right,1,None,38,57:43,1,0.721535099999528,,,,,,,,,,,,,,,Rachel,2 - with skip,"57:43, 54:46","1.5s, 1.0s",2023-07-20_17h06.58.443,Rewa's Exp,2023.1.2,59.890783167402624,
Countdown_1.5s.mp4,red,"[-1.0, 1.0, -1.0]",right,Countdown_1.5s.jpg,8,0,8,0,0,0,0,2,0,2,2,0,,,,,0,0,0,0,,,,,,,,668.4878310000004,662.9191543000015,663.807375800001,0.8882214999994176,right,1,None,39,57:43,1,0.8668301999987307,,,,,,,,,,,,,,,Rachel,2 - with skip,"57:43, 54:46","1.5s, 1.0s",2023-07-20_17h06.58.443,Rewa's Exp,2023.1.2,59.890783167402624,
Countdown_1.5s.mp4,"[-1.0, 1.0, -1.0]",red,left,Countdown_1.5s.jpg,8,0,8,0,0,0,0,2,0,3,3,2,,,,,0,0,0,0,,,,,,,,673.2842173000008,667.7155368000003,668.3573507000001,0.6418138999997609,left,1,None,40,57:43,1,0.6136824999975943,,,,,,,,,,,,,,,Rachel,2 - with skip,"57:43, 54:46","1.5s, 1.0s",2023-07-20_17h06.58.443,Rewa's Exp,2023.1.2,59.890783167402624,
Countdown_1.5s.mp4,"[-1.0, 1.0, -1.0]",red,left,Countdown_1.5s.jpg,8,0,8,0,0,0,0,2,1,0,4,2,,,,,0,0,0,0,,,,,,,,677.8436947000009,672.2749264000013,672.9084632000013,0.6335368000000017,left,1,None,41,57:43,1,0.6055242999991606,,,,,,,,,,,,,,,Rachel,2 - with skip,"57:43, 54:46","1.5s, 1.0s",2023-07-20_17h06.58.443,Rewa's Exp,2023.1.2,59.890783167402624,
Countdown_1s.mp4,"[-1.0, 1.0, -1.0]",red,left,Countdown_1s.jpg,8,0,8,0,0,0,0,2,1,1,5,3,,,,,0,0,0,0,,,,,,,,682.4023989000016,676.8337163000015,677.8074998000011,0.9737834999996267,right,0,None,39,57:43,-2,0.9432822999988275,,,,,,,,,,,,,,,Rachel,2 - with skip,"57:43, 54:46","1.5s, 1.0s",2023-07-20_17h06.58.443,Rewa's Exp,2023.1.2,59.890783167402624,
Countdown_1.5s.mp4,red,"[-1.0, 1.0, -1.0]",right,Countdown_1.5s.jpg,8,0,8,0,0,0,0,2,1,2,6,0,,,,,0,0,0,0,,,,,,,,687.3201941000007,681.7515159000013,682.6907234000009,0.9392074999996112,None,0,space,39,57:43,0,,,,,,,,,,,,,0.9141416000002209,,,Rachel,2 - with skip,"57:43, 54:46","1.5s, 1.0s",2023-07-20_17h06.58.443,Rewa's Exp,2023.1.2,59.890783167402624,
Countdown_1s.mp4,red,"[-1.0, 1.0, -1.0]",right,Countdown_1s.jpg,8,0,8,0,0,0,0,2,1,3,7,1,,,,,0,0,0,0,,,,,,,,692.156487100001,686.5877986000014,687.4241144000007,0.8363157999992836,right,1,None,40,57:43,1,0.8136532999997144,,,,,,,,,,,,,,,Rachel,2 - with skip,"57:43, 54:46","1.5s, 1.0s",2023-07-20_17h06.58.443,Rewa's Exp,2023.1.2,59.890783167402624,
Countdown_1.5s.mp4,red,"[-1.0, 1.0, -1.0]",right,Countdown_1.5s.jpg,8,0,8,0,0,0,0,2,,,,,0,0,0,0,0,0,0,0,,,,,,,,,691.369512700001,692.1741697000016,0.8046570000005886,,,,41,54:46,1,,right,1,0.7759736999978486,None,,,,,,,,,,,Rachel,2 - with skip,"57:43, 54:46","1.5s, 1.0s",2023-07-20_17h06.58.443,Rewa's Exp,2023.1.2,59.890783167402624,
Countdown_1.5s.mp4,"[-1.0, 1.0, -1.0]",red,left,Countdown_1.5s.jpg,8,0,8,0,0,0,0,2,,,,,0,1,1,2,0,0,0,0,,,,,,,,,696.0925843000005,697.0241808999999,0.931596599999466,,,,41,54:46,0,,None,0,,space,0.9075343999993493,,,,,,,,,,Rachel,2 - with skip,"57:43, 54:46","1.5s, 1.0s",2023-07-20_17h06.58.443,Rewa's Exp,2023.1.2,59.890783167402624,
Countdown_1s.mp4,"[-1.0, 1.0, -1.0]",red,left,Countdown_1s.jpg,8,0,8,0,0,0,0,2,,,,,0,2,2,3,0,0,0,0,,,,,,,,,700.9622434000012,701.7907121000007,0.8284686999995756,,,,39,54:46,-2,,right,0,0.8080056999988301,None,,,,,,,,,,,Rachel,2 - with skip,"57:43, 54:46","1.5s, 1.0s",2023-07-20_17h06.58.443,Rewa's Exp,2023.1.2,59.890783167402624,
Countdown_1s.mp4,red,"[-1.0, 1.0, -1.0]",right,Countdown_1s.jpg,8,0,8,0,0,0,0,2,,,,,0,3,3,1,0,0,0,0,,,,,,,,,705.7187491000004,706.6241452000013,0.9053961000008712,,,,40,54:46,1,,right,1,0.8817481999976735,None,,,,,,,,,,,Rachel,2 - with skip,"57:43, 54:46","1.5s, 1.0s",2023-07-20_17h06.58.443,Rewa's Exp,2023.1.2,59.890783167402624,
Countdown_1s.mp4,red,"[-1.0, 1.0, -1.0]",right,Countdown_1s.jpg,8,0,8,0,0,0,0,2,,,,,1,0,4,1,0,0,0,0,,,,,,,,,710.5120381000015,711.2742495000002,0.762211399998705,,,,41,54:46,1,,right,1,0.7293895999991946,None,,,,,,,,,,,Rachel,2 - with skip,"57:43, 54:46","1.5s, 1.0s",2023-07-20_17h06.58.443,Rewa's Exp,2023.1.2,59.890783167402624,
Countdown_1.5s.mp4,red,"[-1.0, 1.0, -1.0]",right,Countdown_1.5s.jpg,8,0,8,0,0,0,0,2,,,,,1,1,5,0,0,0,0,0,,,,,,,,,715.1882079000006,716.0579880000005,0.8697800999998435,,,,41,54:46,0,,None,0,,space,0.8456563999989157,,,,,,,,,,Rachel,2 - with skip,"57:43, 54:46","1.5s, 1.0s",2023-07-20_17h06.58.443,Rewa's Exp,2023.1.2,59.890783167402624,
Countdown_1.5s.mp4,"[-1.0, 1.0, -1.0]",red,left,Countdown_1.5s.jpg,8,0,8,0,0,0,0,2,,,,,1,2,6,2,0,0,0,0,,,,,,,,,719.9859563000009,720.9907957000014,1.0048394000004919,,,,39,54:46,-2,,right,0,0.9752939999980299,None,,,,,,,,,,,Rachel,2 - with skip,"57:43, 54:46","1.5s, 1.0s",2023-07-20_17h06.58.443,Rewa's Exp,2023.1.2,59.890783167402624,
Countdown_1s.mp4,"[-1.0, 1.0, -1.0]",red,left,Countdown_1s.jpg,8,0,8,0,0,0,0,2,,,,,1,3,7,3,0,0,0,0,,,,,,,,,724.9028950000011,725.5576062,0.6547111999989284,,,,40,54:46,1,,left,1,0.6351150999998936,None,,,,,,,,,,,Rachel,2 - with skip,"57:43, 54:46","1.5s, 1.0s",2023-07-20_17h06.58.443,Rewa's Exp,2023.1.2,59.890783167402624,
Countdown_1s.mp4,"[-1.0, 1.0, -1.0]",red,left,Countdown_1s.jpg,8,0,8,0,0,0,0,2,,,,,,,,,0,0,0,3,,,,,,,,,,,,,,,,,,,,,,,,732.2679000000007,732.2679000000007,732.2679000000007,732.2679000000007,space,36.99752669999907,,,,Rachel,2 - with skip,"57:43, 54:46","1.5s, 1.0s",2023-07-20_17h06.58.443,Rewa's Exp,2023.1.2,59.890783167402624,
Countdown_1s.mp4,"[-1.0, 1.0, -1.0]",red,left,Countdown_1s.jpg,9,0,9,0,0,0,0,1,0,0,0,3,,,,,0,0,0,3,,,,,,,,772.0887035000014,766.5200303000001,767.3911707000007,0.8711404000005132,left,1,None,41,57:43,1,0.8404346999996051,,,,,,,,,,,,,,,Rachel,2 - with skip,"57:43, 54:46","1.5s, 1.0s",2023-07-20_17h06.58.443,Rewa's Exp,2023.1.2,59.890783167402624,
Countdown_1.5s.mp4,red,"[-1.0, 1.0, -1.0]",right,Countdown_1.5s.jpg,9,0,9,0,0,0,0,1,0,1,1,0,,,,,0,0,0,3,,,,,,,,776.8778107000016,771.3091264000013,772.0246001000014,0.715473700000075,right,1,None,42,57:43,1,0.6838578000006237,,,,,,,,,,,,,,,Rachel,2 - with skip,"57:43, 54:46","1.5s, 1.0s",2023-07-20_17h06.58.443,Rewa's Exp,2023.1.2,59.890783167402624,
Countdown_1.5s.mp4,"[-1.0, 1.0, -1.0]",red,left,Countdown_1.5s.jpg,9,0,9,0,0,0,0,1,0,2,2,2,,,,,0,0,0,3,,,,,,,,781.5567266000016,775.9880538000016,776.6578330000011,0.6697791999995388,left,1,None,43,57:43,1,0.6375964999988355,,,,,,,,,,,,,,,Rachel,2 - with skip,"57:43, 54:46","1.5s, 1.0s",2023-07-20_17h06.58.443,Rewa's Exp,2023.1.2,59.890783167402624,
Countdown_1s.mp4,red,"[-1.0, 1.0, -1.0]",right,Countdown_1s.jpg,9,0,9,0,0,0,0,1,0,3,3,1,,,,,0,0,0,3,,,,,,,,786.1690866000008,780.6004033000008,781.2243282,0.6239248999991105,right,1,None,44,57:43,1,0.6007433999984642,,,,,,,,,,,,,,,Rachel,2 - with skip,"57:43, 54:46","1.5s, 1.0s",2023-07-20_17h06.58.443,Rewa's Exp,2023.1.2,59.890783167402624,
Countdown_1s.mp4,red,"[-1.0, 1.0, -1.0]",right,Countdown_1s.jpg,9,0,9,0,0,0,0,1,1,0,4,1,,,,,0,0,0,3,,,,,,,,790.6774842000013,785.1087991000004,785.7577693000003,0.6489701999998942,right,1,None,45,57:43,1,0.6279564999986178,,,,,,,,,,,,,,,Rachel,2 - with skip,"57:43, 54:46","1.5s, 1.0s",2023-07-20_17h06.58.443,Rewa's Exp,2023.1.2,59.890783167402624,
Countdown_1s.mp4,"[-1.0, 1.0, -1.0]",red,left,Countdown_1s.jpg,9,0,9,0,0,0,0,1,1,1,5,3,,,,,0,0,0,3,,,,,,,,795.2677674000006,789.6990800000003,790.4078468000007,0.708766800000376,left,1,None,46,57:43,1,0.6872834000005241,,,,,,,,,,,,,,,Rachel,2 - with skip,"57:43, 54:46","1.5s, 1.0s",2023-07-20_17h06.58.443,Rewa's Exp,2023.1.2,59.890783167402624,
Countdown_1.5s.mp4,red,"[-1.0, 1.0, -1.0]",right,Countdown_1.5s.jpg,9,0,9,0,0,0,0,1,1,2,6,0,,,,,0,0,0,3,,,,,,,,799.9015490000002,794.3328859000012,795.1079018,0.7750158999988344,right,1,None,47,57:43,1,0.7492513999986841,,,,,,,,,,,,,,,Rachel,2 - with skip,"57:43, 54:46","1.5s, 1.0s",2023-07-20_17h06.58.443,Rewa's Exp,2023.1.2,59.890783167402624,
Countdown_1.5s.mp4,"[-1.0, 1.0, -1.0]",red,left,Countdown_1.5s.jpg,9,0,9,0,0,0,0,1,1,3,7,2,,,,,0,0,0,3,,,,,,,,804.6116488000007,799.0430117000014,799.8746831000008,0.8316713999993226,left,1,None,48,57:43,1,0.7981549999985873,,,,,,,,,,,,,,,Rachel,2 - with skip,"57:43, 54:46","1.5s, 1.0s",2023-07-20_17h06.58.443,Rewa's Exp,2023.1.2,59.890783167402624,
Countdown_1.5s.mp4,red,"[-1.0, 1.0, -1.0]",right,Countdown_1.5s.jpg,9,0,9,0,0,0,0,1,,,,,0,0,0,0,0,0,0,3,,,,,,,,,803.8044494000005,804.7745099000003,0.9700604999998177,,,,46,54:46,-2,,left,0,0.9401990999995178,None,,,,,,,,,,,Rachel,2 - with skip,"57:43, 54:46","1.5s, 1.0s",2023-07-20_17h06.58.443,Rewa's Exp,2023.1.2,59.890783167402624,
Countdown_1s.mp4,red,"[-1.0, 1.0, -1.0]",right,Countdown_1s.jpg,9,0,9,0,0,0,0,1,,,,,0,1,1,1,0,0,0,3,,,,,,,,,808.7238930000003,809.4418964000015,0.7180034000011801,,,,44,54:46,-2,,left,0,0.6936253000003489,None,,,,,,,,,,,Rachel,2 - with skip,"57:43, 54:46","1.5s, 1.0s",2023-07-20_17h06.58.443,Rewa's Exp,2023.1.2,59.890783167402624,
Countdown_1s.mp4,"[-1.0, 1.0, -1.0]",red,left,Countdown_1s.jpg,9,0,9,0,0,0,0,1,,,,,0,2,2,3,0,0,0,3,,,,,,,,,813.4025344000001,814.0911255999999,0.6885911999997916,,,,42,54:46,-2,,right,0,0.671165399999154,None,,,,,,,,,,,Rachel,2 - with skip,"57:43, 54:46","1.5s, 1.0s",2023-07-20_17h06.58.443,Rewa's Exp,2023.1.2,59.890783167402624,
Countdown_1.5s.mp4,"[-1.0, 1.0, -1.0]",red,left,Countdown_1.5s.jpg,9,0,9,0,0,0,0,1,,,,,0,3,3,2,0,0,0,3,,,,,,,,,818.0416175000009,818.8577220000006,0.8161044999997102,,,,42,54:46,0,,None,0,,space,0.7992543000000296,,,,,,,,,,Rachel,2 - with skip,"57:43, 54:46","1.5s, 1.0s",2023-07-20_17h06.58.443,Rewa's Exp,2023.1.2,59.890783167402624,
Countdown_1.5s.mp4,red,"[-1.0, 1.0, -1.0]",right,Countdown_1.5s.jpg,9,0,9,0,0,0,0,1,,,,,1,0,4,0,0,0,0,3,,,,,,,,,822.7488996000011,823.8077415000007,1.0588418999996065,,,,42,54:46,0,,None,0,,space,1.0277105000004667,,,,,,,,,,Rachel,2 - with skip,"57:43, 54:46","1.5s, 1.0s",2023-07-20_17h06.58.443,Rewa's Exp,2023.1.2,59.890783167402624,
Countdown_1s.mp4,red,"[-1.0, 1.0, -1.0]",right,Countdown_1s.jpg,9,0,9,0,0,0,0,1,,,,,1,1,5,1,0,0,0,3,,,,,,,,,827.7057797000016,828.4911448000003,0.7853650999986712,,,,42,54:46,0,,None,0,,space,0.767790399999285,,,,,,,,,,Rachel,2 - with skip,"57:43, 54:46","1.5s, 1.0s",2023-07-20_17h06.58.443,Rewa's Exp,2023.1.2,59.890783167402624,
Countdown_1s.mp4,"[-1.0, 1.0, -1.0]",red,left,Countdown_1s.jpg,9,0,9,0,0,0,0,1,,,,,1,2,6,3,0,0,0,3,,,,,,,,,832.4340371000017,833.0411870000007,0.6071498999990581,,,,43,54:46,1,,left,1,0.5749617999990733,None,,,,,,,,,,,Rachel,2 - with skip,"57:43, 54:46","1.5s, 1.0s",2023-07-20_17h06.58.443,Rewa's Exp,2023.1.2,59.890783167402624,
Countdown_1.5s.mp4,"[-1.0, 1.0, -1.0]",red,left,Countdown_1.5s.jpg,9,0,9,0,0,0,0,1,,,,,1,3,7,2,0,0,0,3,,,,,,,,,836.9495697000002,837.6913225000008,0.7417528000005404,,,,44,54:46,1,,left,1,0.7158196000000316,None,,,,,,,,,,,Rachel,2 - with skip,"57:43, 54:46","1.5s, 1.0s",2023-07-20_17h06.58.443,Rewa's Exp,2023.1.2,59.890783167402624,
Countdown_1s.mp4,red,"[-1.0, 1.0, -1.0]",right,Countdown_1s.jpg,9,0,9,0,0,0,0,1,,,,,,,,,0,0,0,1,,,,,,,,,,,,,,,,,,,,,,,,844.4042202,844.4042202,844.4042202,844.4042202,space,10.182103299999653,,,,Rachel,2 - with skip,"57:43, 54:46","1.5s, 1.0s",2023-07-20_17h06.58.443,Rewa's Exp,2023.1.2,59.890783167402624,
Countdown_1.5s.mp4,"[-1.0, 1.0, -1.0]",red,left,Countdown_1.5s.jpg,10,0,10,0,0,0,0,3,0,0,0,2,,,,,0,0,0,1,,,,,,,,857.4054185000005,851.8367420000013,852.5749617000001,0.7382196999988082,left,1,None,45,57:43,1,0.7085180999984004,,,,,,,,,,,,,,,Rachel,2 - with skip,"57:43, 54:46","1.5s, 1.0s",2023-07-20_17h06.58.443,Rewa's Exp,2023.1.2,59.890783167402624,
Countdown_1.5s.mp4,red,"[-1.0, 1.0, -1.0]",right,Countdown_1.5s.jpg,10,0,10,0,0,0,0,3,0,1,1,0,,,,,0,0,0,1,,,,,,,,862.0380658000013,856.4693994000008,857.8077126000007,1.3383131999999023,right,1,None,46,57:43,1,1.3166390999995201,,,,,,,,,,,,,,,Rachel,2 - with skip,"57:43, 54:46","1.5s, 1.0s",2023-07-20_17h06.58.443,Rewa's Exp,2023.1.2,59.890783167402624,
Countdown_1s.mp4,red,"[-1.0, 1.0, -1.0]",right,Countdown_1s.jpg,10,0,10,0,0,0,0,3,0,2,2,1,,,,,0,0,0,1,,,,,,,,867.2767168999999,861.7080495000009,862.5079615000013,0.7999120000004041,right,1,None,47,57:43,1,0.7728248999992502,,,,,,,,,,,,,,,Rachel,2 - with skip,"57:43, 54:46","1.5s, 1.0s",2023-07-20_17h06.58.443,Rewa's Exp,2023.1.2,59.890783167402624,
Countdown_1s.mp4,"[-1.0, 1.0, -1.0]",red,left,Countdown_1s.jpg,10,0,10,0,0,0,0,3,0,3,3,3,,,,,0,0,0,1,,,,,,,,872.0025830000013,866.4338878000017,867.0746030000009,0.6407151999992493,left,1,None,48,57:43,1,0.6148138999997173,,,,,,,,,,,,,,,Rachel,2 - with skip,"57:43, 54:46","1.5s, 1.0s",2023-07-20_17h06.58.443,Rewa's Exp,2023.1.2,59.890783167402624,
Countdown_1s.mp4,red,"[-1.0, 1.0, -1.0]",right,Countdown_1s.jpg,10,0,10,0,0,0,0,3,1,0,4,1,,,,,0,0,0,1,,,,,,,,876.5608013000001,870.9921284000011,871.641227600001,0.6490991999999096,right,1,None,49,57:43,1,0.6172662999979366,,,,,,,,,,,,,,,Rachel,2 - with skip,"57:43, 54:46","1.5s, 1.0s",2023-07-20_17h06.58.443,Rewa's Exp,2023.1.2,59.890783167402624,
Countdown_1.5s.mp4,"[-1.0, 1.0, -1.0]",red,left,Countdown_1.5s.jpg,10,0,10,0,0,0,0,3,1,1,5,2,,,,,0,0,0,1,,,,,,,,881.1586309000013,875.5900102000014,876.1578223000015,0.5678121000000829,left,1,None,50,57:43,1,0.5397068000002037,,,,,,,,,,,,,,,Rachel,2 - with skip,"57:43, 54:46","1.5s, 1.0s",2023-07-20_17h06.58.443,Rewa's Exp,2023.1.2,59.890783167402624,
Countdown_1.5s.mp4,red,"[-1.0, 1.0, -1.0]",right,Countdown_1.5s.jpg,10,0,10,0,0,0,0,3,1,2,6,0,,,,,0,0,0,1,,,,,,,,885.6646609,880.0959481000009,880.8577866000014,0.7618385000005219,right,1,None,51,57:43,1,0.7287892999993346,,,,,,,,,,,,,,,Rachel,2 - with skip,"57:43, 54:46","1.5s, 1.0s",2023-07-20_17h06.58.443,Rewa's Exp,2023.1.2,59.890783167402624,
Countdown_1s.mp4,"[-1.0, 1.0, -1.0]",red,left,Countdown_1s.jpg,10,0,10,0,0,0,0,3,1,3,7,3,,,,,0,0,0,1,,,,,,,,890.3495099000011,884.7808674000007,885.3745805000017,0.5937131000009686,left,1,None,52,57:43,1,0.5644515999993018,,,,,,,,,,,,,,,Rachel,2 - with skip,"57:43, 54:46","1.5s, 1.0s",2023-07-20_17h06.58.443,Rewa's Exp,2023.1.2,59.890783167402624,
Countdown_1.5s.mp4,red,"[-1.0, 1.0, -1.0]",right,Countdown_1.5s.jpg,10,0,10,0,0,0,0,3,,,,,0,0,0,0,0,0,0,1,,,,,,,,,889.334242500001,889.9914904000016,0.6572479000005842,,,,50,54:46,-2,,left,0,0.6269353999996383,None,,,,,,,,,,,Rachel,2 - with skip,"57:43, 54:46","1.5s, 1.0s",2023-07-20_17h06.58.443,Rewa's Exp,2023.1.2,59.890783167402624,
Countdown_1s.mp4,red,"[-1.0, 1.0, -1.0]",right,Countdown_1s.jpg,10,0,10,0,0,0,0,3,,,,,0,1,1,1,0,0,0,1,,,,,,,,,893.8943039000005,894.5746044000007,0.6803005000001576,,,,50,54:46,0,,None,0,,space,0.6509259999984351,,,,,,,,,,Rachel,2 - with skip,"57:43, 54:46","1.5s, 1.0s",2023-07-20_17h06.58.443,Rewa's Exp,2023.1.2,59.890783167402624,
Countdown_1.5s.mp4,"[-1.0, 1.0, -1.0]",red,left,Countdown_1.5s.jpg,10,0,10,0,0,0,0,3,,,,,0,2,2,2,0,0,0,1,,,,,,,,,898.5058736999999,899.2244036000011,0.7185299000011582,,,,51,54:46,1,,left,1,0.6866346999977395,None,,,,,,,,,,,Rachel,2 - with skip,"57:43, 54:46","1.5s, 1.0s",2023-07-20_17h06.58.443,Rewa's Exp,2023.1.2,59.890783167402624,
Countdown_1s.mp4,"[-1.0, 1.0, -1.0]",red,left,Countdown_1s.jpg,10,0,10,0,0,0,0,3,,,,,0,3,3,3,0,0,0,1,,,,,,,,,903.1363101000006,903.8413038000017,0.7049937000010686,,,,52,54:46,1,,left,1,0.6810767999995733,None,,,,,,,,,,,Rachel,2 - with skip,"57:43, 54:46","1.5s, 1.0s",2023-07-20_17h06.58.443,Rewa's Exp,2023.1.2,59.890783167402624,
Countdown_1.5s.mp4,red,"[-1.0, 1.0, -1.0]",right,Countdown_1.5s.jpg,10,0,10,0,0,0,0,3,,,,,1,0,4,0,0,0,0,1,,,,,,,,,907.7278716000001,908.6080316000007,0.8801600000006147,,,,53,54:46,1,,right,1,0.8487084999997023,None,,,,,,,,,,,Rachel,2 - with skip,"57:43, 54:46","1.5s, 1.0s",2023-07-20_17h06.58.443,Rewa's Exp,2023.1.2,59.890783167402624,
Countdown_1s.mp4,red,"[-1.0, 1.0, -1.0]",right,Countdown_1s.jpg,10,0,10,0,0,0,0,3,,,,,1,1,5,1,0,0,0,1,,,,,,,,,912.5240740000008,913.3243444,0.8002703999991354,,,,53,54:46,0,,None,0,,space,0.7815389999996114,,,,,,,,,,Rachel,2 - with skip,"57:43, 54:46","1.5s, 1.0s",2023-07-20_17h06.58.443,Rewa's Exp,2023.1.2,59.890783167402624,
Countdown_1.5s.mp4,"[-1.0, 1.0, -1.0]",red,left,Countdown_1.5s.jpg,10,0,10,0,0,0,0,3,,,,,1,2,6,2,0,0,0,1,,,,,,,,,917.245087700001,918.0913154000009,0.8462276999998721,,,,53,54:46,0,,None,0,,space,0.8191793999976653,,,,,,,,,,Rachel,2 - with skip,"57:43, 54:46","1.5s, 1.0s",2023-07-20_17h06.58.443,Rewa's Exp,2023.1.2,59.890783167402624,
Countdown_1s.mp4,"[-1.0, 1.0, -1.0]",red,left,Countdown_1s.jpg,10,0,10,0,0,0,0,3,,,,,1,3,7,3,0,0,0,1,,,,,,,,,921.9940515000017,922.6414156999999,0.6473641999982647,,,,54,54:46,1,,left,1,0.6238484999994398,None,,,,,,,,,,,Rachel,2 - with skip,"57:43, 54:46","1.5s, 1.0s",2023-07-20_17h06.58.443,Rewa's Exp,2023.1.2,59.890783167402624,
Countdown_1.5s.mp4,red,"[-1.0, 1.0, -1.0]",right,Countdown_1.5s.jpg,10,0,10,0,0,0,0,3,,,,,,,,,0,0,0,0,,,,,,,,,,,,,,,,,,,,,,,,929.3731285000013,929.3731285000013,929.3731285000013,929.3731285000013,space,1.37348689999817,,,,Rachel,2 - with skip,"57:43, 54:46","1.5s, 1.0s",2023-07-20_17h06.58.443,Rewa's Exp,2023.1.2,59.890783167402624,
Countdown_1.5s.mp4,"[-1.0, 1.0, -1.0]",red,left,Countdown_1.5s.jpg,11,0,11,0,0,0,0,1,0,0,0,2,,,,,0,0,0,0,,,,,,,,933.5441029000012,927.9754323000016,928.8748525999999,0.8994202999983827,left,1,None,55,57:43,1,0.874080599998706,,,,,,,,,,,,,,,Rachel,2 - with skip,"57:43, 54:46","1.5s, 1.0s",2023-07-20_17h06.58.443,Rewa's Exp,2023.1.2,59.890783167402624,
Countdown_1.5s.mp4,red,"[-1.0, 1.0, -1.0]",right,Countdown_1.5s.jpg,11,0,11,0,0,0,0,1,0,1,1,0,,,,,0,0,0,0,,,,,,,,938.3402972000004,932.7716137000007,933.4746079000015,0.7029942000008305,right,1,None,56,57:43,1,0.6859535999992659,,,,,,,,,,,,,,,Rachel,2 - with skip,"57:43, 54:46","1.5s, 1.0s",2023-07-20_17h06.58.443,Rewa's Exp,2023.1.2,59.890783167402624,
Countdown_1s.mp4,"[-1.0, 1.0, -1.0]",red,left,Countdown_1s.jpg,11,0,11,0,0,0,0,1,0,2,2,3,,,,,0,0,0,0,,,,,,,,942.9340864000005,937.3654085000016,937.9080569000016,0.5426483999999618,left,1,None,57,57:43,1,0.5156497999978455,,,,,,,,,,,,,,,Rachel,2 - with skip,"57:43, 54:46","1.5s, 1.0s",2023-07-20_17h06.58.443,Rewa's Exp,2023.1.2,59.890783167402624,
Countdown_1s.mp4,red,"[-1.0, 1.0, -1.0]",right,Countdown_1s.jpg,11,0,11,0,0,0,0,1,0,3,3,1,,,,,0,0,0,0,,,,,,,,947.3653769000011,941.7967016000002,942.5083913000017,0.7116897000014433,right,1,None,58,57:43,1,0.684880400000111,,,,,,,,,,,,,,,Rachel,2 - with skip,"57:43, 54:46","1.5s, 1.0s",2023-07-20_17h06.58.443,Rewa's Exp,2023.1.2,59.890783167402624,
Countdown_1.5s.mp4,red,"[-1.0, 1.0, -1.0]",right,Countdown_1.5s.jpg,11,0,11,0,0,0,0,1,1,0,4,0,,,,,0,0,0,0,,,,,,,,952.0087306000005,946.4400800000003,947.1248271000004,0.6847471000000951,left,0,None,56,57:43,-2,0.6664769999988494,,,,,,,,,,,,,,,Rachel,2 - with skip,"57:43, 54:46","1.5s, 1.0s",2023-07-20_17h06.58.443,Rewa's Exp,2023.1.2,59.890783167402624,
Countdown_1s.mp4,red,"[-1.0, 1.0, -1.0]",right,Countdown_1s.jpg,11,0,11,0,0,0,0,1,1,1,5,1,,,,,0,0,0,0,,,,,,,,956.6059979000001,951.0373914000011,951.7582278000009,0.7208363999998255,right,1,None,57,57:43,1,0.7003021000000444,,,,,,,,,,,,,,,Rachel,2 - with skip,"57:43, 54:46","1.5s, 1.0s",2023-07-20_17h06.58.443,Rewa's Exp,2023.1.2,59.890783167402624,
Countdown_1.5s.mp4,"[-1.0, 1.0, -1.0]",red,left,Countdown_1.5s.jpg,11,0,11,0,0,0,0,1,1,2,6,2,,,,,0,0,0,0,,,,,,,,961.2321298000006,955.6634587000008,956.2924951000005,0.6290363999996771,left,1,None,58,57:43,1,0.6024594999998953,,,,,,,,,,,,,,,Rachel,2 - with skip,"57:43, 54:46","1.5s, 1.0s",2023-07-20_17h06.58.443,Rewa's Exp,2023.1.2,59.890783167402624,
Countdown_1s.mp4,"[-1.0, 1.0, -1.0]",red,left,Countdown_1s.jpg,11,0,11,0,0,0,0,1,1,3,7,3,,,,,0,0,0,0,,,,,,,,965.7877755000009,960.2191804000013,960.8081853000003,0.589004899999054,left,1,None,59,57:43,1,0.5670479999989766,,,,,,,,,,,,,,,Rachel,2 - with skip,"57:43, 54:46","1.5s, 1.0s",2023-07-20_17h06.58.443,Rewa's Exp,2023.1.2,59.890783167402624,
Countdown_1.5s.mp4,red,"[-1.0, 1.0, -1.0]",right,Countdown_1.5s.jpg,11,0,11,0,0,0,0,1,,,,,0,0,0,0,0,0,0,0,,,,,,,,,964.7401759000004,965.8746155000008,1.1344396000004053,,,,59,54:46,0,,None,0,,space,1.1163197000005312,,,,,,,,,,Rachel,2 - with skip,"57:43, 54:46","1.5s, 1.0s",2023-07-20_17h06.58.443,Rewa's Exp,2023.1.2,59.890783167402624,
Countdown_1s.mp4,"[-1.0, 1.0, -1.0]",red,left,Countdown_1s.jpg,11,0,11,0,0,0,0,1,,,,,0,1,1,3,0,0,0,0,,,,,,,,,969.7838098000011,970.3753958000016,0.5915860000004614,,,,60,54:46,1,,left,1,0.5704062999993766,None,,,,,,,,,,,Rachel,2 - with skip,"57:43, 54:46","1.5s, 1.0s",2023-07-20_17h06.58.443,Rewa's Exp,2023.1.2,59.890783167402624,
Countdown_1s.mp4,red,"[-1.0, 1.0, -1.0]",right,Countdown_1s.jpg,11,0,11,0,0,0,0,1,,,,,0,2,2,1,0,0,0,0,,,,,,,,,974.3037819000001,975.0645545000007,0.7607726000005641,,,,60,54:46,0,,None,0,,space,0.7388490999983333,,,,,,,,,,Rachel,2 - with skip,"57:43, 54:46","1.5s, 1.0s",2023-07-20_17h06.58.443,Rewa's Exp,2023.1.2,59.890783167402624,
Countdown_1.5s.mp4,"[-1.0, 1.0, -1.0]",red,left,Countdown_1.5s.jpg,11,0,11,0,0,0,0,1,,,,,0,3,3,2,0,0,0,0,,,,,,,,,978.9862076000009,979.6747212000009,0.6885136000000784,,,,61,54:46,1,,left,1,0.655717800000275,None,,,,,,,,,,,Rachel,2 - with skip,"57:43, 54:46","1.5s, 1.0s",2023-07-20_17h06.58.443,Rewa's Exp,2023.1.2,59.890783167402624,
Countdown_1s.mp4,"[-1.0, 1.0, -1.0]",red,left,Countdown_1s.jpg,11,0,11,0,0,0,0,1,,,,,1,0,4,3,0,0,0,0,,,,,,,,,983.6305101000016,984.2415535,0.6110433999983798,,,,62,54:46,1,,left,1,0.5872340999994776,None,,,,,,,,,,,Rachel,2 - with skip,"57:43, 54:46","1.5s, 1.0s",2023-07-20_17h06.58.443,Rewa's Exp,2023.1.2,59.890783167402624,
Countdown_1s.mp4,red,"[-1.0, 1.0, -1.0]",right,Countdown_1s.jpg,11,0,11,0,0,0,0,1,,,,,1,1,5,1,0,0,0,0,,,,,,,,,988.1884691000014,988.9915126000014,0.803043500000058,,,,63,54:46,1,,right,1,0.7727547999984381,None,,,,,,,,,,,Rachel,2 - with skip,"57:43, 54:46","1.5s, 1.0s",2023-07-20_17h06.58.443,Rewa's Exp,2023.1.2,59.890783167402624,
Countdown_1.5s.mp4,red,"[-1.0, 1.0, -1.0]",right,Countdown_1.5s.jpg,11,0,11,0,0,0,0,1,,,,,1,2,6,0,0,0,0,0,,,,,,,,,992.9010579000005,993.6418858000015,0.7408279000010225,,,,63,54:46,0,,None,0,,space,0.7162840999990294,,,,,,,,,,Rachel,2 - with skip,"57:43, 54:46","1.5s, 1.0s",2023-07-20_17h06.58.443,Rewa's Exp,2023.1.2,59.890783167402624,
Countdown_1.5s.mp4,"[-1.0, 1.0, -1.0]",red,left,Countdown_1.5s.jpg,11,0,11,0,0,0,0,1,,,,,1,3,7,2,0,0,0,0,,,,,,,,,997.5308657000005,998.458267,0.9274012999994738,,,,64,54:46,1,,left,1,0.9034488999986934,None,,,,,,,,,,,Rachel,2 - with skip,"57:43, 54:46","1.5s, 1.0s",2023-07-20_17h06.58.443,Rewa's Exp,2023.1.2,59.890783167402624,
Countdown_1.5s.mp4,"[-1.0, 1.0, -1.0]",red,left,Countdown_1.5s.jpg,11,0,11,0,0,0,0,1,,,,,,,,,0,0,0,2,,,,,,,,,,,,,,,,,,,,,,,,1005.1761198000004,1005.1761198000004,1005.1761198000004,1005.1761198000004,space,1.0102214999988064,,,,Rachel,2 - with skip,"57:43, 54:46","1.5s, 1.0s",2023-07-20_17h06.58.443,Rewa's Exp,2023.1.2,59.890783167402624,
Countdown_1.5s.mp4,"[-1.0, 1.0, -1.0]",red,left,Countdown_1.5s.jpg,12,0,12,0,0,0,0,1,0,0,0,2,,,,,0,0,0,2,,,,,,,,1008.9978328000016,1003.429095200001,1004.3423340000008,0.9132387999998173,left,1,None,65,57:43,1,0.8923421999988932,,,,,,,,,,,,,,,Rachel,2 - with skip,"57:43, 54:46","1.5s, 1.0s",2023-07-20_17h06.58.443,Rewa's Exp,2023.1.2,59.890783167402624,
Countdown_1.5s.mp4,red,"[-1.0, 1.0, -1.0]",right,Countdown_1.5s.jpg,12,0,12,0,0,0,0,1,0,1,1,0,,,,,0,0,0,2,,,,,,,,1013.8759431000017,1008.3072643000014,1009.3079705,1.0007061999986036,left,0,None,63,57:43,-2,0.9834121999992931,,,,,,,,,,,,,,,Rachel,2 - with skip,"57:43, 54:46","1.5s, 1.0s",2023-07-20_17h06.58.443,Rewa's Exp,2023.1.2,59.890783167402624,
Countdown_1s.mp4,red,"[-1.0, 1.0, -1.0]",right,Countdown_1s.jpg,12,0,12,0,0,0,0,1,0,2,2,1,,,,,0,0,0,2,,,,,,,,1018.7840392000016,1013.2153875000004,1014.0914262000006,0.8760387000002083,None,0,space,63,57:43,0,,,,,,,,,,,,,0.8588586999994732,,,Rachel,2 - with skip,"57:43, 54:46","1.5s, 1.0s",2023-07-20_17h06.58.443,Rewa's Exp,2023.1.2,59.890783167402624,
Countdown_1s.mp4,"[-1.0, 1.0, -1.0]",red,left,Countdown_1s.jpg,12,0,12,0,0,0,0,1,0,3,3,3,,,,,0,0,0,2,,,,,,,,1023.6323464000016,1018.0641573000012,1018.7082892000017,0.6441319000005024,left,1,None,64,57:43,1,0.6259269999991375,,,,,,,,,,,,,,,Rachel,2 - with skip,"57:43, 54:46","1.5s, 1.0s",2023-07-20_17h06.58.443,Rewa's Exp,2023.1.2,59.890783167402624,
Countdown_1s.mp4,red,"[-1.0, 1.0, -1.0]",right,Countdown_1s.jpg,12,0,12,0,0,0,0,1,1,0,4,1,,,,,0,0,0,2,,,,,,,,1028.1921589000012,1022.6234625000016,1023.5083195000007,0.8848569999991014,None,0,space,64,57:43,0,,,,,,,,,,,,,0.8578050999985862,,,Rachel,2 - with skip,"57:43, 54:46","1.5s, 1.0s",2023-07-20_17h06.58.443,Rewa's Exp,2023.1.2,59.890783167402624,
Countdown_1s.mp4,"[-1.0, 1.0, -1.0]",red,left,Countdown_1s.jpg,12,0,12,0,0,0,0,1,1,1,5,3,,,,,0,0,0,2,,,,,,,,1032.9892511000016,1027.4205332000001,1028.0081642000005,0.5876310000003286,left,1,None,65,57:43,1,0.5645964999985154,,,,,,,,,,,,,,,Rachel,2 - with skip,"57:43, 54:46","1.5s, 1.0s",2023-07-20_17h06.58.443,Rewa's Exp,2023.1.2,59.890783167402624,
Countdown_1.5s.mp4,"[-1.0, 1.0, -1.0]",red,left,Countdown_1.5s.jpg,12,0,12,0,0,0,0,1,1,2,6,2,,,,,0,0,0,2,,,,,,,,1037.5023945000012,1031.9337476,1032.6749500000005,0.7412024000004749,left,1,None,66,57:43,1,0.7239685999993526,,,,,,,,,,,,,,,Rachel,2 - with skip,"57:43, 54:46","1.5s, 1.0s",2023-07-20_17h06.58.443,Rewa's Exp,2023.1.2,59.890783167402624,
Countdown_1.5s.mp4,red,"[-1.0, 1.0, -1.0]",right,Countdown_1.5s.jpg,12,0,12,0,0,0,0,1,1,3,7,0,,,,,0,0,0,2,,,,,,,,1042.1407292000004,1036.5720875000006,1037.3416178000007,0.7695303000000422,right,1,None,67,57:43,1,0.7416407999990042,,,,,,,,,,,,,,,Rachel,2 - with skip,"57:43, 54:46","1.5s, 1.0s",2023-07-20_17h06.58.443,Rewa's Exp,2023.1.2,59.890783167402624,
Countdown_1.5s.mp4,"[-1.0, 1.0, -1.0]",red,left,Countdown_1.5s.jpg,12,0,12,0,0,0,0,1,,,,,0,0,0,2,0,0,0,2,,,,,,,,,1041.2658686000013,1041.975290100001,0.7094214999997348,,,,68,54:46,1,,left,1,0.6798275000001013,None,,,,,,,,,,,Rachel,2 - with skip,"57:43, 54:46","1.5s, 1.0s",2023-07-20_17h06.58.443,Rewa's Exp,2023.1.2,59.890783167402624,
Countdown_1.5s.mp4,red,"[-1.0, 1.0, -1.0]",right,Countdown_1.5s.jpg,12,0,12,0,0,0,0,1,,,,,0,1,1,0,0,0,0,2,,,,,,,,,1045.912701000001,1046.8083897000015,0.8956887000003917,,,,68,54:46,0,,None,0,,space,0.8727223999976559,,,,,,,,,,Rachel,2 - with skip,"57:43, 54:46","1.5s, 1.0s",2023-07-20_17h06.58.443,Rewa's Exp,2023.1.2,59.890783167402624,
Countdown_1s.mp4,"[-1.0, 1.0, -1.0]",red,left,Countdown_1s.jpg,12,0,12,0,0,0,0,1,,,,,0,2,2,3,0,0,0,2,,,,,,,,,1050.7059922000008,1051.4749432000008,0.7689510000000155,,,,69,54:46,1,,left,1,0.7430170999996335,None,,,,,,,,,,,Rachel,2 - with skip,"57:43, 54:46","1.5s, 1.0s",2023-07-20_17h06.58.443,Rewa's Exp,2023.1.2,59.890783167402624,
Countdown_1s.mp4,red,"[-1.0, 1.0, -1.0]",right,Countdown_1s.jpg,12,0,12,0,0,0,0,1,,,,,0,3,3,1,0,0,0,2,,,,,,,,,1055.3858934,1056.2082858000012,0.822392400001263,,,,69,54:46,0,,None,0,,space,0.7909311999992497,,,,,,,,,,Rachel,2 - with skip,"57:43, 54:46","1.5s, 1.0s",2023-07-20_17h06.58.443,Rewa's Exp,2023.1.2,59.890783167402624,
Countdown_1.5s.mp4,"[-1.0, 1.0, -1.0]",red,left,Countdown_1.5s.jpg,12,0,12,0,0,0,0,1,,,,,1,0,4,2,0,0,0,2,,,,,,,,,1060.1065315000014,1060.8083494000002,0.7018178999987867,,,,70,54:46,1,,left,1,0.678456699999515,None,,,,,,,,,,,Rachel,2 - with skip,"57:43, 54:46","1.5s, 1.0s",2023-07-20_17h06.58.443,Rewa's Exp,2023.1.2,59.890783167402624,
Countdown_1s.mp4,"[-1.0, 1.0, -1.0]",red,left,Countdown_1s.jpg,12,0,12,0,0,0,0,1,,,,,1,1,5,3,0,0,0,2,,,,,,,,,1064.7044879000005,1065.3250745000005,0.6205866000000242,,,,71,54:46,1,,left,1,0.5930706999988615,None,,,,,,,,,,,Rachel,2 - with skip,"57:43, 54:46","1.5s, 1.0s",2023-07-20_17h06.58.443,Rewa's Exp,2023.1.2,59.890783167402624,
Countdown_1.5s.mp4,red,"[-1.0, 1.0, -1.0]",right,Countdown_1.5s.jpg,12,0,12,0,0,0,0,1,,,,,1,2,6,0,0,0,0,2,,,,,,,,,1069.2228080000004,1070.1915116,0.9687035999995715,,,,72,54:46,1,,right,1,0.9382573000002594,None,,,,,,,,,,,Rachel,2 - with skip,"57:43, 54:46","1.5s, 1.0s",2023-07-20_17h06.58.443,Rewa's Exp,2023.1.2,59.890783167402624,
Countdown_1s.mp4,red,"[-1.0, 1.0, -1.0]",right,Countdown_1s.jpg,12,0,12,0,0,0,0,1,,,,,1,3,7,1,0,0,0,2,,,,,,,,,1074.1002567000014,1074.9417290000001,0.8414722999987134,,,,70,54:46,-2,,left,0,0.8211441000003106,None,,,,,,,,,,,Rachel,2 - with skip,"57:43, 54:46","1.5s, 1.0s",2023-07-20_17h06.58.443,Rewa's Exp,2023.1.2,59.890783167402624,
Countdown_1.5s.mp4,"[-1.0, 1.0, -1.0]",red,left,Countdown_1.5s.jpg,12,0,12,0,0,0,0,1,,,,,,,,,0,0,0,2,,,,,,,,,,,,,,,,,,,,,,,,1081.6680811000006,1081.6680811000006,1081.6680811000006,1081.6680811000006,space,1.2628760999978113,,,,Rachel,2 - with skip,"57:43, 54:46","1.5s, 1.0s",2023-07-20_17h06.58.443,Rewa's Exp,2023.1.2,59.890783167402624,
Countdown_1.5s.mp4,red,"[-1.0, 1.0, -1.0]",right,Countdown_1.5s.jpg,13,0,13,0,0,0,0,3,0,0,0,0,,,,,0,0,0,2,,,,,,,,1085.749412700001,1080.1807687,1081.3580968000006,1.1773281000005227,right,1,None,71,57:43,1,1.1566392999993695,,,,,,,,,,,,,,,Rachel,2 - with skip,"57:43, 54:46","1.5s, 1.0s",2023-07-20_17h06.58.443,Rewa's Exp,2023.1.2,59.890783167402624,
Countdown_1.5s.mp4,"[-1.0, 1.0, -1.0]",red,left,Countdown_1.5s.jpg,13,0,13,0,0,0,0,3,0,1,1,2,,,,,0,0,0,2,,,,,,,,1090.8118524000001,1085.2431951000017,1085.9083432000007,0.6651480999989872,left,1,None,72,57:43,1,0.6386587999986659,,,,,,,,,,,,,,,Rachel,2 - with skip,"57:43, 54:46","1.5s, 1.0s",2023-07-20_17h06.58.443,Rewa's Exp,2023.1.2,59.890783167402624,
Countdown_1s.mp4,red,"[-1.0, 1.0, -1.0]",right,Countdown_1s.jpg,13,0,13,0,0,0,0,3,0,2,2,1,,,,,0,0,0,2,,,,,,,,1095.3597673000004,1089.7910869000007,1090.5250557,0.7339687999992748,None,0,space,72,57:43,0,,,,,,,,,,,,,0.7147712000005413,,,Rachel,2 - with skip,"57:43, 54:46","1.5s, 1.0s",2023-07-20_17h06.58.443,Rewa's Exp,2023.1.2,59.890783167402624,
Countdown_1s.mp4,"[-1.0, 1.0, -1.0]",red,left,Countdown_1s.jpg,13,0,13,0,0,0,0,3,0,3,3,3,,,,,0,0,0,2,,,,,,,,1100.0388723000015,1094.4702043000016,1095.2417361000007,0.7715317999991385,left,1,None,73,57:43,1,0.7477326999996876,,,,,,,,,,,,,,,Rachel,2 - with skip,"57:43, 54:46","1.5s, 1.0s",2023-07-20_17h06.58.443,Rewa's Exp,2023.1.2,59.890783167402624,
Countdown_1.5s.mp4,"[-1.0, 1.0, -1.0]",red,left,Countdown_1.5s.jpg,13,0,13,0,0,0,0,3,1,0,4,2,,,,,0,0,0,2,,,,,,,,1104.7548099000014,1099.1861351000007,1100.0591583000005,0.8730231999998068,left,1,None,74,57:43,1,0.8487196000005497,,,,,,,,,,,,,,,Rachel,2 - with skip,"57:43, 54:46","1.5s, 1.0s",2023-07-20_17h06.58.443,Rewa's Exp,2023.1.2,59.890783167402624,
Countdown_1s.mp4,red,"[-1.0, 1.0, -1.0]",right,Countdown_1s.jpg,13,0,13,0,0,0,0,3,1,1,5,1,,,,,0,0,0,2,,,,,,,,1109.5445501000013,1103.9758533000004,1104.8749929000005,0.8991396000001259,right,1,None,75,57:43,1,0.8735378999990644,,,,,,,,,,,,,,,Rachel,2 - with skip,"57:43, 54:46","1.5s, 1.0s",2023-07-20_17h06.58.443,Rewa's Exp,2023.1.2,59.890783167402624,
Countdown_1s.mp4,"[-1.0, 1.0, -1.0]",red,left,Countdown_1s.jpg,13,0,13,0,0,0,0,3,1,2,6,3,,,,,0,0,0,2,,,,,,,,1114.3357844000002,1108.767114100001,1109.4584144,0.6913002999990567,left,1,None,76,57:43,1,0.6675875000000815,,,,,,,,,,,,,,,Rachel,2 - with skip,"57:43, 54:46","1.5s, 1.0s",2023-07-20_17h06.58.443,Rewa's Exp,2023.1.2,59.890783167402624,
Countdown_1.5s.mp4,red,"[-1.0, 1.0, -1.0]",right,Countdown_1.5s.jpg,13,0,13,0,0,0,0,3,1,3,7,0,,,,,0,0,0,2,,,,,,,,1118.974467600001,1113.4057932000014,1114.2583072000016,0.8525140000001556,right,1,None,77,57:43,1,0.8354122000000643,,,,,,,,,,,,,,,Rachel,2 - with skip,"57:43, 54:46","1.5s, 1.0s",2023-07-20_17h06.58.443,Rewa's Exp,2023.1.2,59.890783167402624,
Countdown_1.5s.mp4,red,"[-1.0, 1.0, -1.0]",right,Countdown_1.5s.jpg,13,0,13,0,0,0,0,3,,,,,0,0,0,0,0,0,0,2,,,,,,,,,1118.1863227000013,1119.0750145000002,0.8886917999989237,,,,75,54:46,-2,,left,0,0.8643121999994037,None,,,,,,,,,,,Rachel,2 - with skip,"57:43, 54:46","1.5s, 1.0s",2023-07-20_17h06.58.443,Rewa's Exp,2023.1.2,59.890783167402624,
Countdown_1s.mp4,"[-1.0, 1.0, -1.0]",red,left,Countdown_1s.jpg,13,0,13,0,0,0,0,3,,,,,0,1,1,3,0,0,0,2,,,,,,,,,1122.9837782000013,1123.6917495000016,0.7079713000002812,,,,76,54:46,1,,left,1,0.6819058999990375,None,,,,,,,,,,,Rachel,2 - with skip,"57:43, 54:46","1.5s, 1.0s",2023-07-20_17h06.58.443,Rewa's Exp,2023.1.2,59.890783167402624,
Countdown_1.5s.mp4,"[-1.0, 1.0, -1.0]",red,left,Countdown_1.5s.jpg,13,0,13,0,0,0,0,3,,,,,0,2,2,2,0,0,0,2,,,,,,,,,1127.6188108000006,1128.3416509000017,0.7228401000011218,,,,77,54:46,1,,left,1,0.6952393999999913,None,,,,,,,,,,,Rachel,2 - with skip,"57:43, 54:46","1.5s, 1.0s",2023-07-20_17h06.58.443,Rewa's Exp,2023.1.2,59.890783167402624,
Countdown_1s.mp4,red,"[-1.0, 1.0, -1.0]",right,Countdown_1s.jpg,13,0,13,0,0,0,0,3,,,,,0,3,3,1,0,0,0,2,,,,,,,,,1132.253918100001,1132.9925396000017,0.7386215000005905,,,,75,54:46,-2,,left,0,0.7075607999995555,None,,,,,,,,,,,Rachel,2 - with skip,"57:43, 54:46","1.5s, 1.0s",2023-07-20_17h06.58.443,Rewa's Exp,2023.1.2,59.890783167402624,
Countdown_1s.mp4,"[-1.0, 1.0, -1.0]",red,left,Countdown_1s.jpg,13,0,13,0,0,0,0,3,,,,,1,0,4,3,0,0,0,2,,,,,,,,,1136.890663100001,1137.6918325000006,0.8011693999997078,,,,76,54:46,1,,left,1,0.7678781999984494,None,,,,,,,,,,,Rachel,2 - with skip,"57:43, 54:46","1.5s, 1.0s",2023-07-20_17h06.58.443,Rewa's Exp,2023.1.2,59.890783167402624,
Countdown_1.5s.mp4,"[-1.0, 1.0, -1.0]",red,left,Countdown_1.5s.jpg,13,0,13,0,0,0,0,3,,,,,1,1,5,2,0,0,0,2,,,,,,,,,1141.6077694000014,1142.442026300001,0.8342568999996729,,,,76,54:46,0,,None,0,,space,0.8015630999998393,,,,,,,,,,Rachel,2 - with skip,"57:43, 54:46","1.5s, 1.0s",2023-07-20_17h06.58.443,Rewa's Exp,2023.1.2,59.890783167402624,
Countdown_1s.mp4,red,"[-1.0, 1.0, -1.0]",right,Countdown_1s.jpg,13,0,13,0,0,0,0,3,,,,,1,2,6,1,0,0,0,2,,,,,,,,,1146.3828957000005,1147.3584435000012,0.9755478000006406,,,,74,54:46,-2,,None,0,,None,,,,,,,,,,,Rachel,2 - with skip,"57:43, 54:46","1.5s, 1.0s",2023-07-20_17h06.58.443,Rewa's Exp,2023.1.2,59.890783167402624,
Countdown_1.5s.mp4,red,"[-1.0, 1.0, -1.0]",right,Countdown_1.5s.jpg,13,0,13,0,0,0,0,3,,,,,1,3,7,0,0,0,0,2,,,,,,,,,1151.2628712000005,1152.1420213000001,0.879150099999606,,,,74,54:46,0,,None,0,,space,0.8505036999995355,,,,,,,,,,Rachel,2 - with skip,"57:43, 54:46","1.5s, 1.0s",2023-07-20_17h06.58.443,Rewa's Exp,2023.1.2,59.890783167402624,
Countdown_1.5s.mp4,red,"[-1.0, 1.0, -1.0]",right,Countdown_1.5s.jpg,13,0,13,0,0,0,0,3,,,,,,,,,0,0,0,0,,,,,,,,,,,,,,,,,,,,,,,,1158.868751,1158.868751,1158.868751,1158.868751,space,2.757466999999451,,,,Rachel,2 - with skip,"57:43, 54:46","1.5s, 1.0s",2023-07-20_17h06.58.443,Rewa's Exp,2023.1.2,59.890783167402624,
Countdown_1.5s.mp4,"[-1.0, 1.0, -1.0]",red,left,Countdown_1.5s.jpg,14,0,14,0,0,0,0,2,0,0,0,2,,,,,0,0,0,0,,,,,,,,1164.4563333000006,1158.8876654000014,1159.8752319000014,0.9875664999999572,left,1,None,75,57:43,1,0.9621855000004871,,,,,,,,,,,,,,,Rachel,2 - with skip,"57:43, 54:46","1.5s, 1.0s",2023-07-20_17h06.58.443,Rewa's Exp,2023.1.2,59.890783167402624,
Countdown_1s.mp4,"[-1.0, 1.0, -1.0]",red,left,Countdown_1s.jpg,14,0,14,0,0,0,0,2,0,1,1,3,,,,,0,0,0,0,,,,,,,,1169.3742536000009,1163.8055370000002,1164.6087799000015,0.8032429000013508,left,1,None,76,57:43,1,0.771647399998983,,,,,,,,,,,,,,,Rachel,2 - with skip,"57:43, 54:46","1.5s, 1.0s",2023-07-20_17h06.58.443,Rewa's Exp,2023.1.2,59.890783167402624,
Countdown_1s.mp4,red,"[-1.0, 1.0, -1.0]",right,Countdown_1s.jpg,14,0,14,0,0,0,0,2,0,2,2,1,,,,,0,0,0,0,,,,,,,,1174.083765700001,1168.5151030000015,1169.4254985000007,0.9103954999991402,right,1,None,77,57:43,1,0.8867471999983536,,,,,,,,,,,,,,,Rachel,2 - with skip,"57:43, 54:46","1.5s, 1.0s",2023-07-20_17h06.58.443,Rewa's Exp,2023.1.2,59.890783167402624,
Countdown_1.5s.mp4,red,"[-1.0, 1.0, -1.0]",right,Countdown_1.5s.jpg,14,0,14,0,0,0,0,2,0,3,3,0,,,,,0,0,0,0,,,,,,,,1178.9356799000016,1173.3670043000002,1174.3751139000015,1.0081096000012622,right,1,None,78,57:43,1,0.9867779999985942,,,,,,,,,,,,,,,Rachel,2 - with skip,"57:43, 54:46","1.5s, 1.0s",2023-07-20_17h06.58.443,Rewa's Exp,2023.1.2,59.890783167402624,
Countdown_1s.mp4,"[-1.0, 1.0, -1.0]",red,left,Countdown_1s.jpg,14,0,14,0,0,0,0,2,1,0,4,3,,,,,0,0,0,0,,,,,,,,1183.8541742000016,1178.2854630000002,1178.9417999000016,0.6563369000014063,left,1,None,79,57:43,1,0.628519599998981,,,,,,,,,,,,,,,Rachel,2 - with skip,"57:43, 54:46","1.5s, 1.0s",2023-07-20_17h06.58.443,Rewa's Exp,2023.1.2,59.890783167402624,
Countdown_1.5s.mp4,red,"[-1.0, 1.0, -1.0]",right,Countdown_1.5s.jpg,14,0,14,0,0,0,0,2,1,1,5,0,,,,,0,0,0,0,,,,,,,,1188.4046335000003,1182.8359676,1183.6084605000015,0.7724929000014527,right,1,None,80,57:43,1,0.7512473999995564,,,,,,,,,,,,,,,Rachel,2 - with skip,"57:43, 54:46","1.5s, 1.0s",2023-07-20_17h06.58.443,Rewa's Exp,2023.1.2,59.890783167402624,
Countdown_1s.mp4,red,"[-1.0, 1.0, -1.0]",right,Countdown_1s.jpg,14,0,14,0,0,0,0,2,1,2,6,1,,,,,0,0,0,0,,,,,,,,1193.1145613000008,1187.5458841,1188.208665600001,0.6627815000010742,left,0,None,78,57:43,-2,0.6309817999990628,,,,,,,,,,,,,,,Rachel,2 - with skip,"57:43, 54:46","1.5s, 1.0s",2023-07-20_17h06.58.443,Rewa's Exp,2023.1.2,59.890783167402624,
Countdown_1.5s.mp4,"[-1.0, 1.0, -1.0]",red,left,Countdown_1.5s.jpg,14,0,14,0,0,0,0,2,1,3,7,2,,,,,0,0,0,0,,,,,,,,1197.6688634000002,1192.1002601,1192.908450500001,0.8081904000009672,left,1,None,79,57:43,1,0.7824047999984032,,,,,,,,,,,,,,,Rachel,2 - with skip,"57:43, 54:46","1.5s, 1.0s",2023-07-20_17h06.58.443,Rewa's Exp,2023.1.2,59.890783167402624,
Countdown_1s.mp4,"[-1.0, 1.0, -1.0]",red,left,Countdown_1s.jpg,14,0,14,0,0,0,0,2,,,,,0,0,0,3,0,0,0,0,,,,,,,,,1196.8405878000012,1197.5251839000011,0.6845960999999079,,,,77,54:46,-2,,right,0,0.6660981999993965,None,,,,,,,,,,,Rachel,2 - with skip,"57:43, 54:46","1.5s, 1.0s",2023-07-20_17h06.58.443,Rewa's Exp,2023.1.2,59.890783167402624,
Countdown_1s.mp4,red,"[-1.0, 1.0, -1.0]",right,Countdown_1s.jpg,14,0,14,0,0,0,0,2,,,,,0,1,1,1,0,0,0,0,,,,,,,,,1201.4505950000002,1202.192218100001,0.7416231000006519,,,,78,54:46,1,,right,1,0.7207571999988431,None,,,,,,,,,,,Rachel,2 - with skip,"57:43, 54:46","1.5s, 1.0s",2023-07-20_17h06.58.443,Rewa's Exp,2023.1.2,59.890783167402624,
Countdown_1.5s.mp4,red,"[-1.0, 1.0, -1.0]",right,Countdown_1.5s.jpg,14,0,14,0,0,0,0,2,,,,,0,2,2,0,0,0,0,0,,,,,,,,,1206.1491545000008,1207.025474,0.8763194999992265,,,,79,54:46,1,,right,1,0.8520057999994606,None,,,,,,,,,,,Rachel,2 - with skip,"57:43, 54:46","1.5s, 1.0s",2023-07-20_17h06.58.443,Rewa's Exp,2023.1.2,59.890783167402624,
Countdown_1.5s.mp4,"[-1.0, 1.0, -1.0]",red,left,Countdown_1.5s.jpg,14,0,14,0,0,0,0,2,,,,,0,3,3,2,0,0,0,0,,,,,,,,,1210.9840933000014,1211.8921772000012,0.9080838999998377,,,,80,54:46,1,,left,1,0.890727699998024,None,,,,,,,,,,,Rachel,2 - with skip,"57:43, 54:46","1.5s, 1.0s",2023-07-20_17h06.58.443,Rewa's Exp,2023.1.2,59.890783167402624,
Countdown_1.5s.mp4,"[-1.0, 1.0, -1.0]",red,left,Countdown_1.5s.jpg,14,0,14,0,0,0,0,2,,,,,1,0,4,2,0,0,0,0,,,,,,,,,1215.8161751000007,1216.7253711000012,0.9091960000005201,,,,78,54:46,-2,,right,0,0.8906418999995367,None,,,,,,,,,,,Rachel,2 - with skip,"57:43, 54:46","1.5s, 1.0s",2023-07-20_17h06.58.443,Rewa's Exp,2023.1.2,59.890783167402624,
Countdown_1s.mp4,"[-1.0, 1.0, -1.0]",red,left,Countdown_1s.jpg,14,0,14,0,0,0,0,2,,,,,1,1,5,3,0,0,0,0,,,,,,,,,1220.6483633000007,1221.3085192000017,0.6601559000009729,,,,79,54:46,1,,left,1,0.6420648999992409,None,,,,,,,,,,,Rachel,2 - with skip,"57:43, 54:46","1.5s, 1.0s",2023-07-20_17h06.58.443,Rewa's Exp,2023.1.2,59.890783167402624,
Countdown_1.5s.mp4,red,"[-1.0, 1.0, -1.0]",right,Countdown_1.5s.jpg,14,0,14,0,0,0,0,2,,,,,1,2,6,0,0,0,0,0,,,,,,,,,1225.2040091,1226.0254268000008,0.8214177000008931,,,,79,54:46,0,,None,0,,space,0.796716099997866,,,,,,,,,,Rachel,2 - with skip,"57:43, 54:46","1.5s, 1.0s",2023-07-20_17h06.58.443,Rewa's Exp,2023.1.2,59.890783167402624,
Countdown_1s.mp4,red,"[-1.0, 1.0, -1.0]",right,Countdown_1s.jpg,14,0,14,0,0,0,0,2,,,,,1,3,7,1,0,0,0,0,,,,,,,,,1229.9078894000013,1230.6594895000017,0.7516001000003598,,,,80,54:46,1,,right,1,0.726298699999461,None,,,,,,,,,,,Rachel,2 - with skip,"57:43, 54:46","1.5s, 1.0s",2023-07-20_17h06.58.443,Rewa's Exp,2023.1.2,59.890783167402624,
Countdown_1.5s.mp4,red,"[-1.0, 1.0, -1.0]",right,Countdown_1.5s.jpg,14,0,14,0,0,0,0,2,,,,,,,,,0,0,0,0,,,,,,,,,,,,,,,,,,,,,,,,1237.4008437000011,1237.4008437000011,1237.4008437000011,1237.4008437000011,space,0.9454208999995899,,,,Rachel,2 - with skip,"57:43, 54:46","1.5s, 1.0s",2023-07-20_17h06.58.443,Rewa's Exp,2023.1.2,59.890783167402624,
,,,,,,,,,,,,,,,,,,,,,,,,,,,,,,,,,,,,,,,,,,,,,,,,,,,,,,,1238.3715436000002,1243.3713109,,,,,,,,,
