Duration,Countdown,color1,color2,correct,screenshot,trials.thisRepN,trials.thisTrialN,trials.thisN,trials.thisIndex,trials_6040.thisRepN,trials_6040.thisTrialN,trials_6040.thisN,trials_6040.thisIndex,trials_5743.thisRepN,trials_5743.thisTrialN,trials_5743.thisN,trials_5743.thisIndex,trials_5446.thisRepN,trials_5446.thisTrialN,trials_5446.thisN,trials_5446.thisIndex,trials_5149.thisRepN,trials_5149.thisTrialN,trials_5149.thisN,trials_5149.thisIndex,key_resp_4.started,key_resp_4.keys,key_resp_4.rt,key_resp_2.keys,key_resp_3.started,key_resp_3.keys,key_resp_3.rt,Videoshowstart,Videoshowstop,VideoshowRT,response_3.keys,response_3.corr,response_3.rt,key_skip_3.keys,total_score,Dot_ratio,current_score,key_skip_3.rt,response_4.keys,response_4.corr,response_4.rt,key_skip_4.keys,key_skip_4.rt,text_2.started,text_5.started,key_resp.started,text_9.started,key_resp.keys,key_resp.rt,text_10.started,text_10.stopped,participant,Task,Dot Ratio,Deadline,date,expName,psychopyVersion,frameRate,
,,,,,,,,,,,,,,,,,,,,,,,,,,77.4319059999998,space,24.377253399999972,,,,,,,,,,,,,,,,,,,,,,,,,,,,,Tokka,2 - with skip,"54:46, 51:49","2.5s, 2.0s",2023-07-20_15h17.45.508,Rewa's Exp,2023.1.2,59.84981287949168,
,,,,,,,,,,,,,,,,,,,,,,,,,,,,,None,,,,,,,,,,,,,,,,,,,,,,,,,,,,Tokka,2 - with skip,"54:46, 51:49","2.5s, 2.0s",2023-07-20_15h17.45.508,Rewa's Exp,2023.1.2,59.84981287949168,
,,,,,,,,,,,,,,,,,,,,,,,,,,,,,,101.82778299999973,space,4.245736200000465,,,,,,,,,,,,,,,,,,,,,,,,,Tokka,2 - with skip,"54:46, 51:49","2.5s, 2.0s",2023-07-20_15h17.45.508,Rewa's Exp,2023.1.2,59.84981287949168,
2.5,Countdown_2.5s.mp4,red,"[-1.0, 1.0, -1.0]",right,Countdown_2.5s.jpg,0,0,0,0,0,0,0,2,0,0,0,1,0,0,0,0,,,,,,,,,,,,103.27740600000016,104.64945819999957,1.3720521999994162,left,0,1.3543710999992982,None,-2,54:46,-2,,,,,,,,,,,,,,,Tokka,2 - with skip,"54:46, 51:49","2.5s, 2.0s",2023-07-20_15h17.45.508,Rewa's Exp,2023.1.2,59.84981287949168,
2,Countdown_2s.mp4,red,"[-1.0, 1.0, -1.0]",right,Countdown_2s.jpg,0,0,0,0,0,0,0,2,0,0,0,1,0,1,1,1,,,,,,,,,,,,108.59889019999991,110.01630889999979,1.417418699999871,left,0,1.4003584000001865,None,-4,54:46,-2,,,,,,,,,,,,,,,Tokka,2 - with skip,"54:46, 51:49","2.5s, 2.0s",2023-07-20_15h17.45.508,Rewa's Exp,2023.1.2,59.84981287949168,
2.5,Countdown_2.5s.mp4,"[-1.0, 1.0, -1.0]",red,left,Countdown_2.5s.jpg,0,0,0,0,0,0,0,2,0,0,0,1,0,2,2,2,,,,,,,,,,,,113.94459050000023,114.74922419999984,0.8046336999996129,left,1,0.7821491999993668,None,-3,54:46,1,,,,,,,,,,,,,,,Tokka,2 - with skip,"54:46, 51:49","2.5s, 2.0s",2023-07-20_15h17.45.508,Rewa's Exp,2023.1.2,59.84981287949168,
2,Countdown_2s.mp4,"[-1.0, 1.0, -1.0]",red,left,Countdown_2s.jpg,0,0,0,0,0,0,0,2,0,0,0,1,0,3,3,3,,,,,,,,,,,,118.67010889999983,119.59937769999942,0.9292687999995906,left,1,0.9125285999998596,None,-2,54:46,1,,,,,,,,,,,,,,,Tokka,2 - with skip,"54:46, 51:49","2.5s, 2.0s",2023-07-20_15h17.45.508,Rewa's Exp,2023.1.2,59.84981287949168,
2.5,Countdown_2.5s.mp4,"[-1.0, 1.0, -1.0]",red,left,Countdown_2.5s.jpg,0,0,0,0,0,0,0,2,0,0,0,1,1,0,4,2,,,,,,,,,,,,123.55596789999981,124.49928829999953,0.9433203999997204,None,0,,space,-2,54:46,0,0.9147381999991921,,,,,,,,,,,,,,Tokka,2 - with skip,"54:46, 51:49","2.5s, 2.0s",2023-07-20_15h17.45.508,Rewa's Exp,2023.1.2,59.84981287949168,
2,Countdown_2s.mp4,"[-1.0, 1.0, -1.0]",red,left,Countdown_2s.jpg,0,0,0,0,0,0,0,2,0,0,0,1,1,1,5,3,,,,,,,,,,,,128.39832169999954,129.41594879999957,1.017627100000027,left,1,1.0003711999997904,None,-1,54:46,1,,,,,,,,,,,,,,,Tokka,2 - with skip,"54:46, 51:49","2.5s, 2.0s",2023-07-20_15h17.45.508,Rewa's Exp,2023.1.2,59.84981287949168,
2.5,Countdown_2.5s.mp4,red,"[-1.0, 1.0, -1.0]",right,Countdown_2.5s.jpg,0,0,0,0,0,0,0,2,0,0,0,1,1,2,6,0,,,,,,,,,,,,133.3246941999996,134.5326331999995,1.2079389999998966,right,1,1.1777034999995522,None,0,54:46,1,,,,,,,,,,,,,,,Tokka,2 - with skip,"54:46, 51:49","2.5s, 2.0s",2023-07-20_15h17.45.508,Rewa's Exp,2023.1.2,59.84981287949168,
2,Countdown_2s.mp4,red,"[-1.0, 1.0, -1.0]",right,Countdown_2s.jpg,0,0,0,0,0,0,0,2,0,0,0,1,1,3,7,1,,,,,,,,,,,,138.4467697,139.43302649999987,0.9862567999998646,right,1,0.9690318999992087,None,1,54:46,1,,,,,,,,,,,,,,,Tokka,2 - with skip,"54:46, 51:49","2.5s, 2.0s",2023-07-20_15h17.45.508,Rewa's Exp,2023.1.2,59.84981287949168,
2.5,Countdown_2.5s.mp4,red,"[-1.0, 1.0, -1.0]",right,Countdown_2.5s.jpg,0,0,0,0,0,0,0,2,0,0,0,1,,,,,0,0,0,0,,,,,,,,143.15782930000023,144.3659120000002,1.2080826999999772,,,,,-1,51:49,-2,,left,0,1.1764008000000103,None,,,,,,,,,,Tokka,2 - with skip,"54:46, 51:49","2.5s, 2.0s",2023-07-20_15h17.45.508,Rewa's Exp,2023.1.2,59.84981287949168,
2,Countdown_2s.mp4,"[-1.0, 1.0, -1.0]",red,left,Countdown_2s.jpg,0,0,0,0,0,0,0,2,0,0,0,1,,,,,0,1,1,3,,,,,,,,148.29283359999954,149.6325654000002,1.3397318000006635,,,,,-1,51:49,0,,None,0,,space,1.3131932999995115,,,,,,,,,Tokka,2 - with skip,"54:46, 51:49","2.5s, 2.0s",2023-07-20_15h17.45.508,Rewa's Exp,2023.1.2,59.84981287949168,
2.5,Countdown_2.5s.mp4,"[-1.0, 1.0, -1.0]",red,left,Countdown_2.5s.jpg,0,0,0,0,0,0,0,2,0,0,0,1,,,,,0,2,2,2,,,,,,,,153.5671185000001,154.7657436999998,1.1986251999996966,,,,,0,51:49,1,,left,1,1.1762713999996777,None,,,,,,,,,,Tokka,2 - with skip,"54:46, 51:49","2.5s, 2.0s",2023-07-20_15h17.45.508,Rewa's Exp,2023.1.2,59.84981287949168,
2,Countdown_2s.mp4,red,"[-1.0, 1.0, -1.0]",right,Countdown_2s.jpg,0,0,0,0,0,0,0,2,0,0,0,1,,,,,0,3,3,1,,,,,,,,158.69364229999974,159.81583539999974,1.122193100000004,,,,,1,51:49,1,,right,1,1.0895651000000726,None,,,,,,,,,,Tokka,2 - with skip,"54:46, 51:49","2.5s, 2.0s",2023-07-20_15h17.45.508,Rewa's Exp,2023.1.2,59.84981287949168,
2.5,Countdown_2.5s.mp4,red,"[-1.0, 1.0, -1.0]",right,Countdown_2.5s.jpg,0,0,0,0,0,0,0,2,0,0,0,1,,,,,1,0,4,0,,,,,,,,163.74455390000003,165.24921939999967,1.5046654999996463,,,,,1,51:49,0,,None,0,,space,1.485751799999889,,,,,,,,,Tokka,2 - with skip,"54:46, 51:49","2.5s, 2.0s",2023-07-20_15h17.45.508,Rewa's Exp,2023.1.2,59.84981287949168,
2,Countdown_2s.mp4,red,"[-1.0, 1.0, -1.0]",right,Countdown_2s.jpg,0,0,0,0,0,0,0,2,0,0,0,1,,,,,1,1,5,1,,,,,,,,169.14455970000017,170.3325552999995,1.18799559999934,,,,,2,51:49,1,,right,1,1.1575933000003715,None,,,,,,,,,,Tokka,2 - with skip,"54:46, 51:49","2.5s, 2.0s",2023-07-20_15h17.45.508,Rewa's Exp,2023.1.2,59.84981287949168,
2,Countdown_2s.mp4,"[-1.0, 1.0, -1.0]",red,left,Countdown_2s.jpg,0,0,0,0,0,0,0,2,0,0,0,1,,,,,1,2,6,3,,,,,,,,174.2644848,175.23260949999985,0.9681246999998621,,,,,3,51:49,1,,left,1,0.9434408999995867,None,,,,,,,,,,Tokka,2 - with skip,"54:46, 51:49","2.5s, 2.0s",2023-07-20_15h17.45.508,Rewa's Exp,2023.1.2,59.84981287949168,
2.5,Countdown_2.5s.mp4,"[-1.0, 1.0, -1.0]",red,left,Countdown_2.5s.jpg,0,0,0,0,0,0,0,2,0,0,0,1,,,,,1,3,7,2,,,,,,,,179.16038320000007,180.34962050000013,1.189237300000059,,,,,3,51:49,0,,None,0,,space,1.1661298999997598,,,,,,,,,Tokka,2 - with skip,"54:46, 51:49","2.5s, 2.0s",2023-07-20_15h17.45.508,Rewa's Exp,2023.1.2,59.84981287949168,
2,Countdown_2s.mp4,red,"[-1.0, 1.0, -1.0]",right,Countdown_2s.jpg,0,0,0,0,0,0,0,2,0,0,0,1,,,,,,,,,,,,,,,,,,,,,,,,,,,,,,,,186.9708542999997,186.9708542999997,186.9708542999997,186.9708542999997,space,1.9744626000001517,,,Tokka,2 - with skip,"54:46, 51:49","2.5s, 2.0s",2023-07-20_15h17.45.508,Rewa's Exp,2023.1.2,59.84981287949168,
2.5,Countdown_2.5s.mp4,red,"[-1.0, 1.0, -1.0]",right,Countdown_2.5s.jpg,1,0,1,0,0,0,0,3,0,0,0,0,0,0,0,0,,,,,,,,,,,,186.3204882,187.39941249999993,1.078924299999926,right,1,1.0464366999995036,None,4,54:46,1,,,,,,,,,,,,,,,Tokka,2 - with skip,"54:46, 51:49","2.5s, 2.0s",2023-07-20_15h17.45.508,Rewa's Exp,2023.1.2,59.84981287949168,
2.5,Countdown_2.5s.mp4,"[-1.0, 1.0, -1.0]",red,left,Countdown_2.5s.jpg,1,0,1,0,0,0,0,3,0,0,0,0,0,1,1,2,,,,,,,,,,,,191.32736299999942,192.69930999999997,1.3719470000005458,None,0,,space,4,54:46,0,1.3436885000000984,,,,,,,,,,,,,,Tokka,2 - with skip,"54:46, 51:49","2.5s, 2.0s",2023-07-20_15h17.45.508,Rewa's Exp,2023.1.2,59.84981287949168,
2,Countdown_2s.mp4,"[-1.0, 1.0, -1.0]",red,left,Countdown_2s.jpg,1,0,1,0,0,0,0,3,0,0,0,0,0,2,2,3,,,,,,,,,,,,196.60832949999985,197.61608890000025,1.0077594000003955,None,0,,space,4,54:46,0,0.9816350999999486,,,,,,,,,,,,,,Tokka,2 - with skip,"54:46, 51:49","2.5s, 2.0s",2023-07-20_15h17.45.508,Rewa's Exp,2023.1.2,59.84981287949168,
2,Countdown_2s.mp4,red,"[-1.0, 1.0, -1.0]",right,Countdown_2s.jpg,1,0,1,0,0,0,0,3,0,0,0,0,0,3,3,1,,,,,,,,,,,,201.52489739999965,202.36588609999944,0.840988699999798,right,1,0.8092770000002929,None,5,54:46,1,,,,,,,,,,,,,,,Tokka,2 - with skip,"54:46, 51:49","2.5s, 2.0s",2023-07-20_15h17.45.508,Rewa's Exp,2023.1.2,59.84981287949168,
2,Countdown_2s.mp4,red,"[-1.0, 1.0, -1.0]",right,Countdown_2s.jpg,1,0,1,0,0,0,0,3,0,0,0,0,1,0,4,1,,,,,,,,,,,,206.28569220000008,207.03291389999958,0.7472216999994998,right,1,0.7215932999997676,None,6,54:46,1,,,,,,,,,,,,,,,Tokka,2 - with skip,"54:46, 51:49","2.5s, 2.0s",2023-07-20_15h17.45.508,Rewa's Exp,2023.1.2,59.84981287949168,
2,Countdown_2s.mp4,"[-1.0, 1.0, -1.0]",red,left,Countdown_2s.jpg,1,0,1,0,0,0,0,3,0,0,0,0,1,1,5,3,,,,,,,,,,,,210.96928299999945,211.8160412999996,0.8467583000001468,right,0,0.8148632000002181,None,4,54:46,-2,,,,,,,,,,,,,,,Tokka,2 - with skip,"54:46, 51:49","2.5s, 2.0s",2023-07-20_15h17.45.508,Rewa's Exp,2023.1.2,59.84981287949168,
2.5,Countdown_2.5s.mp4,"[-1.0, 1.0, -1.0]",red,left,Countdown_2.5s.jpg,1,0,1,0,0,0,0,3,0,0,0,0,1,2,6,2,,,,,,,,,,,,215.73567889999958,216.66610469999978,0.9304258000001937,left,1,0.9115738999998939,None,5,54:46,1,,,,,,,,,,,,,,,Tokka,2 - with skip,"54:46, 51:49","2.5s, 2.0s",2023-07-20_15h17.45.508,Rewa's Exp,2023.1.2,59.84981287949168,
2.5,Countdown_2.5s.mp4,red,"[-1.0, 1.0, -1.0]",right,Countdown_2.5s.jpg,1,0,1,0,0,0,0,3,0,0,0,0,1,3,7,0,,,,,,,,,,,,220.61896179999985,221.3661333,0.7471715000001495,right,1,0.7159478999992643,None,6,54:46,1,,,,,,,,,,,,,,,Tokka,2 - with skip,"54:46, 51:49","2.5s, 2.0s",2023-07-20_15h17.45.508,Rewa's Exp,2023.1.2,59.84981287949168,
2.5,Countdown_2.5s.mp4,"[-1.0, 1.0, -1.0]",red,left,Countdown_2.5s.jpg,1,0,1,0,0,0,0,3,0,0,0,0,,,,,0,0,0,2,,,,,,,,225.27892559999964,226.33280839999952,1.053882799999883,,,,,6,51:49,0,,None,0,,space,1.0234940999998798,,,,,,,,,Tokka,2 - with skip,"54:46, 51:49","2.5s, 2.0s",2023-07-20_15h17.45.508,Rewa's Exp,2023.1.2,59.84981287949168,
2.5,Countdown_2.5s.mp4,red,"[-1.0, 1.0, -1.0]",right,Countdown_2.5s.jpg,1,0,1,0,0,0,0,3,0,0,0,0,,,,,0,1,1,0,,,,,,,,230.28004520000013,231.88267769999948,1.6026324999993449,,,,,7,51:49,1,,right,1,1.5836783000004289,None,,,,,,,,,,Tokka,2 - with skip,"54:46, 51:49","2.5s, 2.0s",2023-07-20_15h17.45.508,Rewa's Exp,2023.1.2,59.84981287949168,
2,Countdown_2s.mp4,red,"[-1.0, 1.0, -1.0]",right,Countdown_2s.jpg,1,0,1,0,0,0,0,3,0,0,0,0,,,,,0,2,2,1,,,,,,,,235.80330179999964,236.83307289999993,1.0297711000002892,,,,,7,51:49,0,,None,0,,space,1.0111356999996133,,,,,,,,,Tokka,2 - with skip,"54:46, 51:49","2.5s, 2.0s",2023-07-20_15h17.45.508,Rewa's Exp,2023.1.2,59.84981287949168,
2,Countdown_2s.mp4,"[-1.0, 1.0, -1.0]",red,left,Countdown_2s.jpg,1,0,1,0,0,0,0,3,0,0,0,0,,,,,0,3,3,3,,,,,,,,240.76317589999962,242.01634879999983,1.2531729000002088,,,,,8,51:49,1,,left,1,1.2281450000000405,None,,,,,,,,,,Tokka,2 - with skip,"54:46, 51:49","2.5s, 2.0s",2023-07-20_15h17.45.508,Rewa's Exp,2023.1.2,59.84981287949168,
2,Countdown_2s.mp4,"[-1.0, 1.0, -1.0]",red,left,Countdown_2s.jpg,1,0,1,0,0,0,0,3,0,0,0,0,,,,,1,0,4,3,,,,,,,,245.9593163999998,246.96601829999963,1.0067018999998254,,,,,6,51:49,-2,,right,0,0.9755589000005784,None,,,,,,,,,,Tokka,2 - with skip,"54:46, 51:49","2.5s, 2.0s",2023-07-20_15h17.45.508,Rewa's Exp,2023.1.2,59.84981287949168,
2.5,Countdown_2.5s.mp4,red,"[-1.0, 1.0, -1.0]",right,Countdown_2.5s.jpg,1,0,1,0,0,0,0,3,0,0,0,0,,,,,1,1,5,0,,,,,,,,250.86211079999975,252.01640309999948,1.1542922999997245,,,,,4,51:49,-2,,left,0,1.1217160000005606,None,,,,,,,,,,Tokka,2 - with skip,"54:46, 51:49","2.5s, 2.0s",2023-07-20_15h17.45.508,Rewa's Exp,2023.1.2,59.84981287949168,
2,Countdown_2s.mp4,red,"[-1.0, 1.0, -1.0]",right,Countdown_2s.jpg,1,0,1,0,0,0,0,3,0,0,0,0,,,,,1,2,6,1,,,,,,,,255.97620069999994,256.9160334999997,0.9398327999997491,,,,,2,51:49,-2,,left,0,0.9110576000002766,None,,,,,,,,,,Tokka,2 - with skip,"54:46, 51:49","2.5s, 2.0s",2023-07-20_15h17.45.508,Rewa's Exp,2023.1.2,59.84981287949168,
2.5,Countdown_2.5s.mp4,"[-1.0, 1.0, -1.0]",red,left,Countdown_2.5s.jpg,1,0,1,0,0,0,0,3,0,0,0,0,,,,,1,3,7,2,,,,,,,,260.8219444999995,261.5826119000003,0.7606674000007843,,,,,3,51:49,1,,left,1,0.7290492000001905,None,,,,,,,,,,Tokka,2 - with skip,"54:46, 51:49","2.5s, 2.0s",2023-07-20_15h17.45.508,Rewa's Exp,2023.1.2,59.84981287949168,
2.5,Countdown_2.5s.mp4,red,"[-1.0, 1.0, -1.0]",right,Countdown_2.5s.jpg,1,0,1,0,0,0,0,3,0,0,0,0,,,,,,,,,,,,,,,,,,,,,,,,,,,,,,,,268.1773737000003,268.1773737000003,268.1773737000003,268.1773737000003,space,2.1684153999995033,,,Tokka,2 - with skip,"54:46, 51:49","2.5s, 2.0s",2023-07-20_15h17.45.508,Rewa's Exp,2023.1.2,59.84981287949168,
2,Countdown_2s.mp4,red,"[-1.0, 1.0, -1.0]",right,Countdown_2s.jpg,2,0,2,0,0,0,0,0,0,0,0,0,0,0,0,1,,,,,,,,,,,,267.72739159999946,269.0827473999998,1.355355800000325,None,0,,space,3,54:46,0,1.3347272000000885,,,,,,,,,,,,,,Tokka,2 - with skip,"54:46, 51:49","2.5s, 2.0s",2023-07-20_15h17.45.508,Rewa's Exp,2023.1.2,59.84981287949168,
2.5,Countdown_2.5s.mp4,"[-1.0, 1.0, -1.0]",red,left,Countdown_2.5s.jpg,2,0,2,0,0,0,0,0,0,0,0,0,0,1,1,2,,,,,,,,,,,,273.053817,273.8496083,0.795791300000019,left,1,0.7694876999994449,None,4,54:46,1,,,,,,,,,,,,,,,Tokka,2 - with skip,"54:46, 51:49","2.5s, 2.0s",2023-07-20_15h17.45.508,Rewa's Exp,2023.1.2,59.84981287949168,
2.5,Countdown_2.5s.mp4,red,"[-1.0, 1.0, -1.0]",right,Countdown_2.5s.jpg,2,0,2,0,0,0,0,0,0,0,0,0,0,2,2,0,,,,,,,,,,,,277.81846080000014,278.76949239999976,0.9510315999996237,right,1,0.9000583999995797,None,5,54:46,1,,,,,,,,,,,,,,,Tokka,2 - with skip,"54:46, 51:49","2.5s, 2.0s",2023-07-20_15h17.45.508,Rewa's Exp,2023.1.2,59.84981287949168,
2,Countdown_2s.mp4,"[-1.0, 1.0, -1.0]",red,left,Countdown_2s.jpg,2,0,2,0,0,0,0,0,0,0,0,0,0,3,3,3,,,,,,,,,,,,282.71116619999975,283.43324179999945,0.7220755999996982,left,1,0.6953485000003639,None,6,54:46,1,,,,,,,,,,,,,,,Tokka,2 - with skip,"54:46, 51:49","2.5s, 2.0s",2023-07-20_15h17.45.508,Rewa's Exp,2023.1.2,59.84981287949168,
2.5,Countdown_2.5s.mp4,"[-1.0, 1.0, -1.0]",red,left,Countdown_2.5s.jpg,2,0,2,0,0,0,0,0,0,0,0,0,1,0,4,2,,,,,,,,,,,,287.3525652999997,288.3492897999995,0.9967244999998002,left,1,0.9746152999996411,None,7,54:46,1,,,,,,,,,,,,,,,Tokka,2 - with skip,"54:46, 51:49","2.5s, 2.0s",2023-07-20_15h17.45.508,Rewa's Exp,2023.1.2,59.84981287949168,
2.5,Countdown_2.5s.mp4,red,"[-1.0, 1.0, -1.0]",right,Countdown_2.5s.jpg,2,0,2,0,0,0,0,0,0,0,0,0,1,1,5,0,,,,,,,,,,,,292.25328999999965,293.08337759999995,0.8300876000002972,None,0,,space,7,54:46,0,0.8014086000002862,,,,,,,,,,,,,,Tokka,2 - with skip,"54:46, 51:49","2.5s, 2.0s",2023-07-20_15h17.45.508,Rewa's Exp,2023.1.2,59.84981287949168,
2,Countdown_2s.mp4,"[-1.0, 1.0, -1.0]",red,left,Countdown_2s.jpg,2,0,2,0,0,0,0,0,0,0,0,0,1,2,6,3,,,,,,,,,,,,297.0093006999996,297.76642399999946,0.7571232999998756,left,1,0.733321600000636,None,8,54:46,1,,,,,,,,,,,,,,,Tokka,2 - with skip,"54:46, 51:49","2.5s, 2.0s",2023-07-20_15h17.45.508,Rewa's Exp,2023.1.2,59.84981287949168,
2,Countdown_2s.mp4,red,"[-1.0, 1.0, -1.0]",right,Countdown_2s.jpg,2,0,2,0,0,0,0,0,0,0,0,0,1,3,7,1,,,,,,,,,,,,301.7223998999998,302.7005486999997,0.9781487999998717,None,0,,space,8,54:46,0,0.9486475999992763,,,,,,,,,,,,,,Tokka,2 - with skip,"54:46, 51:49","2.5s, 2.0s",2023-07-20_15h17.45.508,Rewa's Exp,2023.1.2,59.84981287949168,
2,Countdown_2s.mp4,"[-1.0, 1.0, -1.0]",red,left,Countdown_2s.jpg,2,0,2,0,0,0,0,0,0,0,0,0,,,,,0,0,0,3,,,,,,,,306.6221605999999,307.3662878999994,0.7441272999994908,,,,,9,51:49,1,,left,1,0.7208626000001459,None,,,,,,,,,,Tokka,2 - with skip,"54:46, 51:49","2.5s, 2.0s",2023-07-20_15h17.45.508,Rewa's Exp,2023.1.2,59.84981287949168,
2.5,Countdown_2.5s.mp4,red,"[-1.0, 1.0, -1.0]",right,Countdown_2.5s.jpg,2,0,2,0,0,0,0,0,0,0,0,0,,,,,0,1,1,0,,,,,,,,311.2573305999995,312.2163277999998,0.9589972000003399,,,,,9,51:49,0,,None,0,,space,0.941609100000278,,,,,,,,,Tokka,2 - with skip,"54:46, 51:49","2.5s, 2.0s",2023-07-20_15h17.45.508,Rewa's Exp,2023.1.2,59.84981287949168,
2.5,Countdown_2.5s.mp4,"[-1.0, 1.0, -1.0]",red,left,Countdown_2.5s.jpg,2,0,2,0,0,0,0,0,0,0,0,0,,,,,0,2,2,2,,,,,,,,316.1886962999997,317.6327768000001,1.444080500000382,,,,,7,51:49,-2,,right,0,1.426624599999741,None,,,,,,,,,,Tokka,2 - with skip,"54:46, 51:49","2.5s, 2.0s",2023-07-20_15h17.45.508,Rewa's Exp,2023.1.2,59.84981287949168,
2,Countdown_2s.mp4,red,"[-1.0, 1.0, -1.0]",right,Countdown_2s.jpg,2,0,2,0,0,0,0,0,0,0,0,0,,,,,0,3,3,1,,,,,,,,321.5528339000002,322.4830560999999,0.9302221999996618,,,,,8,51:49,1,,right,1,0.9097087000000101,None,,,,,,,,,,Tokka,2 - with skip,"54:46, 51:49","2.5s, 2.0s",2023-07-20_15h17.45.508,Rewa's Exp,2023.1.2,59.84981287949168,
2,Countdown_2s.mp4,"[-1.0, 1.0, -1.0]",red,left,Countdown_2s.jpg,2,0,2,0,0,0,0,0,0,0,0,0,,,,,1,0,4,3,,,,,,,,326.39478080000026,327.1330372000002,0.7382563999999547,,,,,9,51:49,1,,left,1,0.7079184000003806,None,,,,,,,,,,Tokka,2 - with skip,"54:46, 51:49","2.5s, 2.0s",2023-07-20_15h17.45.508,Rewa's Exp,2023.1.2,59.84981287949168,
2,Countdown_2s.mp4,red,"[-1.0, 1.0, -1.0]",right,Countdown_2s.jpg,2,0,2,0,0,0,0,0,0,0,0,0,,,,,1,1,5,1,,,,,,,,331.0338249999995,331.9163539000001,0.8825289000005796,,,,,10,51:49,1,,right,1,0.8618714999993244,None,,,,,,,,,,Tokka,2 - with skip,"54:46, 51:49","2.5s, 2.0s",2023-07-20_15h17.45.508,Rewa's Exp,2023.1.2,59.84981287949168,
2.5,Countdown_2.5s.mp4,"[-1.0, 1.0, -1.0]",red,left,Countdown_2.5s.jpg,2,0,2,0,0,0,0,0,0,0,0,0,,,,,1,2,6,2,,,,,,,,335.82384490000004,336.6169792999999,0.7931343999998717,,,,,8,51:49,-2,,right,0,0.7597222000003967,None,,,,,,,,,,Tokka,2 - with skip,"54:46, 51:49","2.5s, 2.0s",2023-07-20_15h17.45.508,Rewa's Exp,2023.1.2,59.84981287949168,
2.5,Countdown_2.5s.mp4,red,"[-1.0, 1.0, -1.0]",right,Countdown_2.5s.jpg,2,0,2,0,0,0,0,0,0,0,0,0,,,,,1,3,7,0,,,,,,,,340.54309999999987,341.4494906,0.9063906000001225,,,,,8,51:49,0,,None,0,,space,0.8874801000001753,,,,,,,,,Tokka,2 - with skip,"54:46, 51:49","2.5s, 2.0s",2023-07-20_15h17.45.508,Rewa's Exp,2023.1.2,59.84981287949168,
2.5,Countdown_2.5s.mp4,red,"[-1.0, 1.0, -1.0]",right,Countdown_2.5s.jpg,2,0,2,0,0,0,0,0,0,0,0,0,,,,,,,,,,,,,,,,,,,,,,,,,,,,,,,,348.03692429999955,348.03692429999955,348.03692429999955,348.03692429999955,space,1.5559386000004451,,,Tokka,2 - with skip,"54:46, 51:49","2.5s, 2.0s",2023-07-20_15h17.45.508,Rewa's Exp,2023.1.2,59.84981287949168,
2.5,Countdown_2.5s.mp4,"[-1.0, 1.0, -1.0]",red,left,Countdown_2.5s.jpg,3,0,3,0,0,0,0,0,0,0,0,0,0,0,0,2,,,,,,,,,,,,346.94758679999995,348.0495351999998,1.1019483999998556,right,0,1.0760759999993752,None,6,54:46,-2,,,,,,,,,,,,,,,Tokka,2 - with skip,"54:46, 51:49","2.5s, 2.0s",2023-07-20_15h17.45.508,Rewa's Exp,2023.1.2,59.84981287949168,
2,Countdown_2s.mp4,red,"[-1.0, 1.0, -1.0]",right,Countdown_2s.jpg,3,0,3,0,0,0,0,0,0,0,0,0,0,1,1,1,,,,,,,,,,,,351.9510346999996,352.8497441999998,0.8987095000002228,right,1,0.8726269999997385,None,7,54:46,1,,,,,,,,,,,,,,,Tokka,2 - with skip,"54:46, 51:49","2.5s, 2.0s",2023-07-20_15h17.45.508,Rewa's Exp,2023.1.2,59.84981287949168,
2.5,Countdown_2.5s.mp4,red,"[-1.0, 1.0, -1.0]",right,Countdown_2.5s.jpg,3,0,3,0,0,0,0,0,0,0,0,0,0,2,2,0,,,,,,,,,,,,356.74474439999995,357.5332521,0.788507700000082,right,1,0.7663396999996621,None,8,54:46,1,,,,,,,,,,,,,,,Tokka,2 - with skip,"54:46, 51:49","2.5s, 2.0s",2023-07-20_15h17.45.508,Rewa's Exp,2023.1.2,59.84981287949168,
2,Countdown_2s.mp4,"[-1.0, 1.0, -1.0]",red,left,Countdown_2s.jpg,3,0,3,0,0,0,0,0,0,0,0,0,0,3,3,3,,,,,,,,,,,,361.4570969999995,362.2166384000002,0.7595414000006713,left,1,0.7421988999994937,None,9,54:46,1,,,,,,,,,,,,,,,Tokka,2 - with skip,"54:46, 51:49","2.5s, 2.0s",2023-07-20_15h17.45.508,Rewa's Exp,2023.1.2,59.84981287949168,
2,Countdown_2s.mp4,"[-1.0, 1.0, -1.0]",red,left,Countdown_2s.jpg,3,0,3,0,0,0,0,0,0,0,0,0,1,0,4,3,,,,,,,,,,,,366.1324378999998,366.8497447999998,0.7173069000000396,left,1,0.6903214999992997,None,10,54:46,1,,,,,,,,,,,,,,,Tokka,2 - with skip,"54:46, 51:49","2.5s, 2.0s",2023-07-20_15h17.45.508,Rewa's Exp,2023.1.2,59.84981287949168,
2.5,Countdown_2.5s.mp4,red,"[-1.0, 1.0, -1.0]",right,Countdown_2.5s.jpg,3,0,3,0,0,0,0,0,0,0,0,0,1,1,5,0,,,,,,,,,,,,370.8216480000001,371.5054884000001,0.6838404000000082,right,1,0.6570523000000321,None,11,54:46,1,,,,,,,,,,,,,,,Tokka,2 - with skip,"54:46, 51:49","2.5s, 2.0s",2023-07-20_15h17.45.508,Rewa's Exp,2023.1.2,59.84981287949168,
2.5,Countdown_2.5s.mp4,"[-1.0, 1.0, -1.0]",red,left,Countdown_2.5s.jpg,3,0,3,0,0,0,0,0,0,0,0,0,1,2,6,2,,,,,,,,,,,,375.45393609999974,376.0331182,0.5791821000002528,left,1,0.5533961000001,None,12,54:46,1,,,,,,,,,,,,,,,Tokka,2 - with skip,"54:46, 51:49","2.5s, 2.0s",2023-07-20_15h17.45.508,Rewa's Exp,2023.1.2,59.84981287949168,
2,Countdown_2s.mp4,red,"[-1.0, 1.0, -1.0]",right,Countdown_2s.jpg,3,0,3,0,0,0,0,0,0,0,0,0,1,3,7,1,,,,,,,,,,,,379.93349579999995,380.5832283,0.6497325000000274,right,1,0.6270320000003267,None,13,54:46,1,,,,,,,,,,,,,,,Tokka,2 - with skip,"54:46, 51:49","2.5s, 2.0s",2023-07-20_15h17.45.508,Rewa's Exp,2023.1.2,59.84981287949168,
2,Countdown_2s.mp4,red,"[-1.0, 1.0, -1.0]",right,Countdown_2s.jpg,3,0,3,0,0,0,0,0,0,0,0,0,,,,,0,0,0,1,,,,,,,,384.5264645999996,385.3829255999999,0.8564610000003086,,,,,11,51:49,-2,,left,0,0.8241916999995738,None,,,,,,,,,,Tokka,2 - with skip,"54:46, 51:49","2.5s, 2.0s",2023-07-20_15h17.45.508,Rewa's Exp,2023.1.2,59.84981287949168,
2.5,Countdown_2.5s.mp4,"[-1.0, 1.0, -1.0]",red,left,Countdown_2.5s.jpg,3,0,3,0,0,0,0,0,0,0,0,0,,,,,0,1,1,2,,,,,,,,389.2702995999998,389.9833923999995,0.7130927999996857,,,,,12,51:49,1,,left,1,0.6885786000002554,None,,,,,,,,,,Tokka,2 - with skip,"54:46, 51:49","2.5s, 2.0s",2023-07-20_15h17.45.508,Rewa's Exp,2023.1.2,59.84981287949168,
2,Countdown_2s.mp4,"[-1.0, 1.0, -1.0]",red,left,Countdown_2s.jpg,3,0,3,0,0,0,0,0,0,0,0,0,,,,,0,2,2,3,,,,,,,,393.91711769999984,394.71641199999976,0.7992942999999286,,,,,12,51:49,0,,None,0,,space,0.7781204000002617,,,,,,,,,Tokka,2 - with skip,"54:46, 51:49","2.5s, 2.0s",2023-07-20_15h17.45.508,Rewa's Exp,2023.1.2,59.84981287949168,
2.5,Countdown_2.5s.mp4,red,"[-1.0, 1.0, -1.0]",right,Countdown_2.5s.jpg,3,0,3,0,0,0,0,0,0,0,0,0,,,,,0,3,3,0,,,,,,,,398.65071609999995,399.44964809999965,0.7989319999996951,,,,,10,51:49,-2,,left,0,0.781850200000008,None,,,,,,,,,,Tokka,2 - with skip,"54:46, 51:49","2.5s, 2.0s",2023-07-20_15h17.45.508,Rewa's Exp,2023.1.2,59.84981287949168,
2.5,Countdown_2.5s.mp4,red,"[-1.0, 1.0, -1.0]",right,Countdown_2.5s.jpg,3,0,3,0,0,0,0,0,0,0,0,0,,,,,1,0,4,0,,,,,,,,403.3698671000002,404.23305749999963,0.8631903999994393,,,,,11,51:49,1,,right,1,0.8366872999995394,None,,,,,,,,,,Tokka,2 - with skip,"54:46, 51:49","2.5s, 2.0s",2023-07-20_15h17.45.508,Rewa's Exp,2023.1.2,59.84981287949168,
2,Countdown_2s.mp4,red,"[-1.0, 1.0, -1.0]",right,Countdown_2s.jpg,3,0,3,0,0,0,0,0,0,0,0,0,,,,,1,1,5,1,,,,,,,,408.1292900999997,408.80005189999974,0.6707618000000366,,,,,12,51:49,1,,right,1,0.6382634999999937,None,,,,,,,,,,Tokka,2 - with skip,"54:46, 51:49","2.5s, 2.0s",2023-07-20_15h17.45.508,Rewa's Exp,2023.1.2,59.84981287949168,
2,Countdown_2s.mp4,"[-1.0, 1.0, -1.0]",red,left,Countdown_2s.jpg,3,0,3,0,0,0,0,0,0,0,0,0,,,,,1,2,6,3,,,,,,,,412.75034249999953,413.5665207000002,0.8161782000006497,,,,,13,51:49,1,,left,1,0.784850699999879,None,,,,,,,,,,Tokka,2 - with skip,"54:46, 51:49","2.5s, 2.0s",2023-07-20_15h17.45.508,Rewa's Exp,2023.1.2,59.84981287949168,
2.5,Countdown_2.5s.mp4,"[-1.0, 1.0, -1.0]",red,left,Countdown_2.5s.jpg,3,0,3,0,0,0,0,0,0,0,0,0,,,,,1,3,7,2,,,,,,,,417.4804702000001,418.4999157000002,1.0194455000000744,,,,,11,51:49,-2,,right,0,0.9997302000001582,None,,,,,,,,,,Tokka,2 - with skip,"54:46, 51:49","2.5s, 2.0s",2023-07-20_15h17.45.508,Rewa's Exp,2023.1.2,59.84981287949168,
2.5,Countdown_2.5s.mp4,red,"[-1.0, 1.0, -1.0]",right,Countdown_2.5s.jpg,3,0,3,0,0,0,0,0,0,0,0,0,,,,,,,,,,,,,,,,,,,,,,,,,,,,,,,,425.0916807000003,425.0916807000003,425.0916807000003,425.0916807000003,space,1.3173501999999644,,,Tokka,2 - with skip,"54:46, 51:49","2.5s, 2.0s",2023-07-20_15h17.45.508,Rewa's Exp,2023.1.2,59.84981287949168,
2,Countdown_2s.mp4,red,"[-1.0, 1.0, -1.0]",right,Countdown_2s.jpg,4,0,4,0,0,0,0,0,0,0,0,2,0,0,0,1,,,,,,,,,,,,423.76175259999945,424.783496,1.0217434000005596,right,1,0.9897547999999006,None,12,54:46,1,,,,,,,,,,,,,,,Tokka,2 - with skip,"54:46, 51:49","2.5s, 2.0s",2023-07-20_15h17.45.508,Rewa's Exp,2023.1.2,59.84981287949168,
2,Countdown_2s.mp4,"[-1.0, 1.0, -1.0]",red,left,Countdown_2s.jpg,4,0,4,0,0,0,0,0,0,0,0,2,0,1,1,3,,,,,,,,,,,,428.72143439999945,429.6166287999995,0.8951944000000367,None,0,,space,12,54:46,0,0.8701319000001604,,,,,,,,,,,,,,Tokka,2 - with skip,"54:46, 51:49","2.5s, 2.0s",2023-07-20_15h17.45.508,Rewa's Exp,2023.1.2,59.84981287949168,
2.5,Countdown_2.5s.mp4,red,"[-1.0, 1.0, -1.0]",right,Countdown_2.5s.jpg,4,0,4,0,0,0,0,0,0,0,0,2,0,2,2,0,,,,,,,,,,,,433.51426549999996,434.2831148999994,0.7688493999994535,right,1,0.7502662999995664,None,13,54:46,1,,,,,,,,,,,,,,,Tokka,2 - with skip,"54:46, 51:49","2.5s, 2.0s",2023-07-20_15h17.45.508,Rewa's Exp,2023.1.2,59.84981287949168,
2.5,Countdown_2.5s.mp4,"[-1.0, 1.0, -1.0]",red,left,Countdown_2.5s.jpg,4,0,4,0,0,0,0,0,0,0,0,2,0,3,3,2,,,,,,,,,,,,438.2410998999994,438.9832815,0.7421816000005492,left,1,0.7102023999996163,None,14,54:46,1,,,,,,,,,,,,,,,Tokka,2 - with skip,"54:46, 51:49","2.5s, 2.0s",2023-07-20_15h17.45.508,Rewa's Exp,2023.1.2,59.84981287949168,
2,Countdown_2s.mp4,"[-1.0, 1.0, -1.0]",red,left,Countdown_2s.jpg,4,0,4,0,0,0,0,0,0,0,0,2,1,0,4,3,,,,,,,,,,,,442.91402839999955,444.0332720999995,1.11924369999997,left,1,1.1014218000000255,None,15,54:46,1,,,,,,,,,,,,,,,Tokka,2 - with skip,"54:46, 51:49","2.5s, 2.0s",2023-07-20_15h17.45.508,Rewa's Exp,2023.1.2,59.84981287949168,
2.5,Countdown_2.5s.mp4,"[-1.0, 1.0, -1.0]",red,left,Countdown_2.5s.jpg,4,0,4,0,0,0,0,0,0,0,0,2,1,1,5,2,,,,,,,,,,,,447.9503337999995,449.04983170000014,1.0994979000006424,None,0,,space,15,54:46,0,1.071919799999705,,,,,,,,,,,,,,Tokka,2 - with skip,"54:46, 51:49","2.5s, 2.0s",2023-07-20_15h17.45.508,Rewa's Exp,2023.1.2,59.84981287949168,
2,Countdown_2s.mp4,red,"[-1.0, 1.0, -1.0]",right,Countdown_2s.jpg,4,0,4,0,0,0,0,0,0,0,0,2,1,2,6,1,,,,,,,,,,,,452.95460490000005,453.8330955000001,0.8784906000000774,None,0,,space,15,54:46,0,0.8524984999994558,,,,,,,,,,,,,,Tokka,2 - with skip,"54:46, 51:49","2.5s, 2.0s",2023-07-20_15h17.45.508,Rewa's Exp,2023.1.2,59.84981287949168,
2.5,Countdown_2.5s.mp4,red,"[-1.0, 1.0, -1.0]",right,Countdown_2.5s.jpg,4,0,4,0,0,0,0,0,0,0,0,2,1,3,7,0,,,,,,,,,,,,457.74742700000024,458.93319319999955,1.185766199999307,left,0,1.1550399999996444,None,13,54:46,-2,,,,,,,,,,,,,,,Tokka,2 - with skip,"54:46, 51:49","2.5s, 2.0s",2023-07-20_15h17.45.508,Rewa's Exp,2023.1.2,59.84981287949168,
2,Countdown_2s.mp4,red,"[-1.0, 1.0, -1.0]",right,Countdown_2s.jpg,4,0,4,0,0,0,0,0,0,0,0,2,,,,,0,0,0,1,,,,,,,,462.8363352999995,463.6498633000001,0.8135280000005878,,,,,14,51:49,1,,right,1,0.7960763000000952,None,,,,,,,,,,Tokka,2 - with skip,"54:46, 51:49","2.5s, 2.0s",2023-07-20_15h17.45.508,Rewa's Exp,2023.1.2,59.84981287949168,
2,Countdown_2s.mp4,"[-1.0, 1.0, -1.0]",red,left,Countdown_2s.jpg,4,0,4,0,0,0,0,0,0,0,0,2,,,,,0,1,1,3,,,,,,,,467.5990671999998,468.3833549000001,0.7842877000002773,,,,,15,51:49,1,,left,1,0.7514977999999246,None,,,,,,,,,,Tokka,2 - with skip,"54:46, 51:49","2.5s, 2.0s",2023-07-20_15h17.45.508,Rewa's Exp,2023.1.2,59.84981287949168,
2.5,Countdown_2.5s.mp4,"[-1.0, 1.0, -1.0]",red,left,Countdown_2.5s.jpg,4,0,4,0,0,0,0,0,0,0,0,2,,,,,0,2,2,2,,,,,,,,472.2619488,473.11678740000025,0.854838600000221,,,,,13,51:49,-2,,right,0,0.8333796999995684,None,,,,,,,,,,Tokka,2 - with skip,"54:46, 51:49","2.5s, 2.0s",2023-07-20_15h17.45.508,Rewa's Exp,2023.1.2,59.84981287949168,
2.5,Countdown_2.5s.mp4,red,"[-1.0, 1.0, -1.0]",right,Countdown_2.5s.jpg,4,0,4,0,0,0,0,0,0,0,0,2,,,,,0,3,3,0,,,,,,,,477.0608793000001,477.6500553999995,0.5891760999993494,,,,,11,51:49,-2,,left,0,0.5625655000003462,None,,,,,,,,,,Tokka,2 - with skip,"54:46, 51:49","2.5s, 2.0s",2023-07-20_15h17.45.508,Rewa's Exp,2023.1.2,59.84981287949168,
2,Countdown_2s.mp4,"[-1.0, 1.0, -1.0]",red,left,Countdown_2s.jpg,4,0,4,0,0,0,0,0,0,0,0,2,,,,,1,0,4,3,,,,,,,,481.57139970000026,482.2167337000001,0.6453339999998207,,,,,12,51:49,1,,left,1,0.6274156999998013,None,,,,,,,,,,Tokka,2 - with skip,"54:46, 51:49","2.5s, 2.0s",2023-07-20_15h17.45.508,Rewa's Exp,2023.1.2,59.84981287949168,
2.5,Countdown_2.5s.mp4,red,"[-1.0, 1.0, -1.0]",right,Countdown_2.5s.jpg,4,0,4,0,0,0,0,0,0,0,0,2,,,,,1,1,5,0,,,,,,,,486.1418211,487.14995699999963,1.0081358999996155,,,,,13,51:49,1,,right,1,0.9852061000001413,None,,,,,,,,,,Tokka,2 - with skip,"54:46, 51:49","2.5s, 2.0s",2023-07-20_15h17.45.508,Rewa's Exp,2023.1.2,59.84981287949168,
2,Countdown_2s.mp4,red,"[-1.0, 1.0, -1.0]",right,Countdown_2s.jpg,4,0,4,0,0,0,0,0,0,0,0,2,,,,,1,2,6,1,,,,,,,,491.04854049999994,491.68342029999985,0.6348797999999078,,,,,11,51:49,-2,,left,0,0.6161450999998124,None,,,,,,,,,,Tokka,2 - with skip,"54:46, 51:49","2.5s, 2.0s",2023-07-20_15h17.45.508,Rewa's Exp,2023.1.2,59.84981287949168,
2.5,Countdown_2.5s.mp4,"[-1.0, 1.0, -1.0]",red,left,Countdown_2.5s.jpg,4,0,4,0,0,0,0,0,0,0,0,2,,,,,1,3,7,2,,,,,,,,495.6453808999995,496.8165250000002,1.1711441000006744,,,,,12,51:49,1,,left,1,1.146859499999664,None,,,,,,,,,,Tokka,2 - with skip,"54:46, 51:49","2.5s, 2.0s",2023-07-20_15h17.45.508,Rewa's Exp,2023.1.2,59.84981287949168,
2.5,Countdown_2.5s.mp4,"[-1.0, 1.0, -1.0]",red,left,Countdown_2.5s.jpg,4,0,4,0,0,0,0,0,0,0,0,2,,,,,,,,,,,,,,,,,,,,,,,,,,,,,,,,503.40109200000006,503.40109200000006,503.40109200000006,503.40109200000006,space,1.04931839999972,,,Tokka,2 - with skip,"54:46, 51:49","2.5s, 2.0s",2023-07-20_15h17.45.508,Rewa's Exp,2023.1.2,59.84981287949168,
2.5,Countdown_2.5s.mp4,red,"[-1.0, 1.0, -1.0]",right,Countdown_2.5s.jpg,5,0,5,0,0,0,0,2,0,0,0,0,0,0,0,0,,,,,,,,,,,,501.8007590999996,502.7003622000002,0.8996031000006042,right,1,0.8785534999997253,None,13,54:46,1,,,,,,,,,,,,,,,Tokka,2 - with skip,"54:46, 51:49","2.5s, 2.0s",2023-07-20_15h17.45.508,Rewa's Exp,2023.1.2,59.84981287949168,
2.5,Countdown_2.5s.mp4,"[-1.0, 1.0, -1.0]",red,left,Countdown_2.5s.jpg,5,0,5,0,0,0,0,2,0,0,0,0,0,1,1,2,,,,,,,,,,,,506.6062261999996,507.5001192999998,0.8938931000002412,left,1,0.8732978999996703,None,14,54:46,1,,,,,,,,,,,,,,,Tokka,2 - with skip,"54:46, 51:49","2.5s, 2.0s",2023-07-20_15h17.45.508,Rewa's Exp,2023.1.2,59.84981287949168,
2,Countdown_2s.mp4,red,"[-1.0, 1.0, -1.0]",right,Countdown_2s.jpg,5,0,5,0,0,0,0,2,0,0,0,0,0,2,2,1,,,,,,,,,,,,511.4398091000003,512.3332657000001,0.8934565999998085,right,1,0.862950799999453,None,15,54:46,1,,,,,,,,,,,,,,,Tokka,2 - with skip,"54:46, 51:49","2.5s, 2.0s",2023-07-20_15h17.45.508,Rewa's Exp,2023.1.2,59.84981287949168,
2,Countdown_2s.mp4,"[-1.0, 1.0, -1.0]",red,left,Countdown_2s.jpg,5,0,5,0,0,0,0,2,0,0,0,0,0,3,3,3,,,,,,,,,,,,516.2500853000001,517.0339600999996,0.7838747999994666,left,1,0.7589663999997356,None,16,54:46,1,,,,,,,,,,,,,,,Tokka,2 - with skip,"54:46, 51:49","2.5s, 2.0s",2023-07-20_15h17.45.508,Rewa's Exp,2023.1.2,59.84981287949168,
2.5,Countdown_2.5s.mp4,red,"[-1.0, 1.0, -1.0]",right,Countdown_2.5s.jpg,5,0,5,0,0,0,0,2,0,0,0,0,1,0,4,0,,,,,,,,,,,,520.9955337000001,521.8001364000002,0.8046027000000322,None,0,,space,16,54:46,0,0.7716721000006146,,,,,,,,,,,,,,Tokka,2 - with skip,"54:46, 51:49","2.5s, 2.0s",2023-07-20_15h17.45.508,Rewa's Exp,2023.1.2,59.84981287949168,
2,Countdown_2s.mp4,"[-1.0, 1.0, -1.0]",red,left,Countdown_2s.jpg,5,0,5,0,0,0,0,2,0,0,0,0,1,1,5,3,,,,,,,,,,,,525.6984264000002,526.4508260000002,0.7523995999999897,left,1,0.7330205999996906,None,17,54:46,1,,,,,,,,,,,,,,,Tokka,2 - with skip,"54:46, 51:49","2.5s, 2.0s",2023-07-20_15h17.45.508,Rewa's Exp,2023.1.2,59.84981287949168,
2,Countdown_2s.mp4,red,"[-1.0, 1.0, -1.0]",right,Countdown_2s.jpg,5,0,5,0,0,0,0,2,0,0,0,0,1,2,6,1,,,,,,,,,,,,530.3887272000002,531.2669974,0.8782701999998608,None,0,,space,17,54:46,0,0.8505083999998533,,,,,,,,,,,,,,Tokka,2 - with skip,"54:46, 51:49","2.5s, 2.0s",2023-07-20_15h17.45.508,Rewa's Exp,2023.1.2,59.84981287949168,
2.5,Countdown_2.5s.mp4,"[-1.0, 1.0, -1.0]",red,left,Countdown_2.5s.jpg,5,0,5,0,0,0,0,2,0,0,0,0,1,3,7,2,,,,,,,,,,,,535.2110019000002,536.0249063000001,0.8139043999999558,left,1,0.7961371999999756,None,18,54:46,1,,,,,,,,,,,,,,,Tokka,2 - with skip,"54:46, 51:49","2.5s, 2.0s",2023-07-20_15h17.45.508,Rewa's Exp,2023.1.2,59.84981287949168,
2.5,Countdown_2.5s.mp4,red,"[-1.0, 1.0, -1.0]",right,Countdown_2.5s.jpg,5,0,5,0,0,0,0,2,0,0,0,0,,,,,0,0,0,0,,,,,,,,539.9665034999998,541.2834496999994,1.3169461999996201,,,,,19,51:49,1,,right,1,1.2808052000000316,None,,,,,,,,,,Tokka,2 - with skip,"54:46, 51:49","2.5s, 2.0s",2023-07-20_15h17.45.508,Rewa's Exp,2023.1.2,59.84981287949168,
2,Countdown_2s.mp4,red,"[-1.0, 1.0, -1.0]",right,Countdown_2s.jpg,5,0,5,0,0,0,0,2,0,0,0,0,,,,,0,1,1,1,,,,,,,,545.2451798000002,546.1333677000002,0.8881879000000481,,,,,17,51:49,-2,,left,0,0.8664734000003591,None,,,,,,,,,,Tokka,2 - with skip,"54:46, 51:49","2.5s, 2.0s",2023-07-20_15h17.45.508,Rewa's Exp,2023.1.2,59.84981287949168,
2.5,Countdown_2.5s.mp4,"[-1.0, 1.0, -1.0]",red,left,Countdown_2.5s.jpg,5,0,5,0,0,0,0,2,0,0,0,0,,,,,0,2,2,2,,,,,,,,550.0880938999999,551.0833289000002,0.9952350000003207,,,,,18,51:49,1,,left,1,0.9665217000001576,None,,,,,,,,,,Tokka,2 - with skip,"54:46, 51:49","2.5s, 2.0s",2023-07-20_15h17.45.508,Rewa's Exp,2023.1.2,59.84981287949168,
2,Countdown_2s.mp4,"[-1.0, 1.0, -1.0]",red,left,Countdown_2s.jpg,5,0,5,0,0,0,0,2,0,0,0,0,,,,,0,3,3,3,,,,,,,,555.0562011000002,555.9671226999999,0.9109215999997105,,,,,16,51:49,-2,,right,0,0.8785611000002973,None,,,,,,,,,,Tokka,2 - with skip,"54:46, 51:49","2.5s, 2.0s",2023-07-20_15h17.45.508,Rewa's Exp,2023.1.2,59.84981287949168,
2.5,Countdown_2.5s.mp4,"[-1.0, 1.0, -1.0]",red,left,Countdown_2.5s.jpg,5,0,5,0,0,0,0,2,0,0,0,0,,,,,1,0,4,2,,,,,,,,559.8889075999996,561.0165869000002,1.1276793000006364,,,,,14,51:49,-2,,right,0,1.0947585999992953,None,,,,,,,,,,Tokka,2 - with skip,"54:46, 51:49","2.5s, 2.0s",2023-07-20_15h17.45.508,Rewa's Exp,2023.1.2,59.84981287949168,
2,Countdown_2s.mp4,"[-1.0, 1.0, -1.0]",red,left,Countdown_2s.jpg,5,0,5,0,0,0,0,2,0,0,0,0,,,,,1,1,5,3,,,,,,,,564.9256844000001,565.6667296999995,0.741045299999314,,,,,15,51:49,1,,left,1,0.7143723999997746,None,,,,,,,,,,Tokka,2 - with skip,"54:46, 51:49","2.5s, 2.0s",2023-07-20_15h17.45.508,Rewa's Exp,2023.1.2,59.84981287949168,
2,Countdown_2s.mp4,red,"[-1.0, 1.0, -1.0]",right,Countdown_2s.jpg,5,0,5,0,0,0,0,2,0,0,0,0,,,,,1,2,6,1,,,,,,,,569.5631877999995,570.7834166000002,1.2202288000007684,,,,,16,51:49,1,,right,1,1.18865839999944,None,,,,,,,,,,Tokka,2 - with skip,"54:46, 51:49","2.5s, 2.0s",2023-07-20_15h17.45.508,Rewa's Exp,2023.1.2,59.84981287949168,
2.5,Countdown_2.5s.mp4,red,"[-1.0, 1.0, -1.0]",right,Countdown_2.5s.jpg,5,0,5,0,0,0,0,2,0,0,0,0,,,,,1,3,7,0,,,,,,,,574.6909096999998,575.5166867999997,0.8257770999998684,,,,,14,51:49,-2,,left,0,0.7978092999992441,None,,,,,,,,,,Tokka,2 - with skip,"54:46, 51:49","2.5s, 2.0s",2023-07-20_15h17.45.508,Rewa's Exp,2023.1.2,59.84981287949168,
2.5,Countdown_2.5s.mp4,red,"[-1.0, 1.0, -1.0]",right,Countdown_2.5s.jpg,5,0,5,0,0,0,0,2,0,0,0,0,,,,,,,,,,,,,,,,,,,,,,,,,,,,,,,,582.1003788999997,582.1003788999997,582.1003788999997,582.1003788999997,space,1.086166800000683,,,Tokka,2 - with skip,"54:46, 51:49","2.5s, 2.0s",2023-07-20_15h17.45.508,Rewa's Exp,2023.1.2,59.84981287949168,
2,Countdown_2s.mp4,red,"[-1.0, 1.0, -1.0]",right,Countdown_2s.jpg,6,0,6,0,0,0,0,2,0,0,0,0,0,0,0,1,,,,,,,,,,,,580.5512373000001,581.5844578999995,1.0332205999993676,right,1,1.0085503000000244,None,15,54:46,1,,,,,,,,,,,,,,,Tokka,2 - with skip,"54:46, 51:49","2.5s, 2.0s",2023-07-20_15h17.45.508,Rewa's Exp,2023.1.2,59.84981287949168,
2.5,Countdown_2.5s.mp4,red,"[-1.0, 1.0, -1.0]",right,Countdown_2.5s.jpg,6,0,6,0,0,0,0,2,0,0,0,0,0,1,1,0,,,,,,,,,,,,585.5124814000001,586.0673164999998,0.5548350999997638,left,0,0.5359536999994816,None,13,54:46,-2,,,,,,,,,,,,,,,Tokka,2 - with skip,"54:46, 51:49","2.5s, 2.0s",2023-07-20_15h17.45.508,Rewa's Exp,2023.1.2,59.84981287949168,
2,Countdown_2s.mp4,"[-1.0, 1.0, -1.0]",red,left,Countdown_2s.jpg,6,0,6,0,0,0,0,2,0,0,0,0,0,2,2,3,,,,,,,,,,,,590.0429284000002,591.1500644999996,1.1071360999994795,left,1,1.0849194999991596,None,14,54:46,1,,,,,,,,,,,,,,,Tokka,2 - with skip,"54:46, 51:49","2.5s, 2.0s",2023-07-20_15h17.45.508,Rewa's Exp,2023.1.2,59.84981287949168,
2.5,Countdown_2.5s.mp4,"[-1.0, 1.0, -1.0]",red,left,Countdown_2.5s.jpg,6,0,6,0,0,0,0,2,0,0,0,0,0,3,3,2,,,,,,,,,,,,595.0726226999996,596.1171045000001,1.0444818000005398,left,1,1.0145307000002504,None,15,54:46,1,,,,,,,,,,,,,,,Tokka,2 - with skip,"54:46, 51:49","2.5s, 2.0s",2023-07-20_15h17.45.508,Rewa's Exp,2023.1.2,59.84981287949168,
2.5,Countdown_2.5s.mp4,"[-1.0, 1.0, -1.0]",red,left,Countdown_2.5s.jpg,6,0,6,0,0,0,0,2,0,0,0,0,1,0,4,2,,,,,,,,,,,,600.0416752000001,601.2000504999996,1.158375299999534,left,1,1.1262933999996676,None,16,54:46,1,,,,,,,,,,,,,,,Tokka,2 - with skip,"54:46, 51:49","2.5s, 2.0s",2023-07-20_15h17.45.508,Rewa's Exp,2023.1.2,59.84981287949168,
2,Countdown_2s.mp4,"[-1.0, 1.0, -1.0]",red,left,Countdown_2s.jpg,6,0,6,0,0,0,0,2,0,0,0,0,1,1,5,3,,,,,,,,,,,,605.1365160999994,605.9335103000003,0.7969942000008814,left,1,0.7749174999999013,None,17,54:46,1,,,,,,,,,,,,,,,Tokka,2 - with skip,"54:46, 51:49","2.5s, 2.0s",2023-07-20_15h17.45.508,Rewa's Exp,2023.1.2,59.84981287949168,
2,Countdown_2s.mp4,red,"[-1.0, 1.0, -1.0]",right,Countdown_2s.jpg,6,0,6,0,0,0,0,2,0,0,0,0,1,2,6,1,,,,,,,,,,,,609.8428782999999,610.6837008000002,0.8408225000002858,right,1,0.8211305000004359,None,18,54:46,1,,,,,,,,,,,,,,,Tokka,2 - with skip,"54:46, 51:49","2.5s, 2.0s",2023-07-20_15h17.45.508,Rewa's Exp,2023.1.2,59.84981287949168,
2.5,Countdown_2.5s.mp4,red,"[-1.0, 1.0, -1.0]",right,Countdown_2.5s.jpg,6,0,6,0,0,0,0,2,0,0,0,0,1,3,7,0,,,,,,,,,,,,614.6054076999999,615.7834579,1.1780502000001434,right,1,1.146202799999628,None,19,54:46,1,,,,,,,,,,,,,,,Tokka,2 - with skip,"54:46, 51:49","2.5s, 2.0s",2023-07-20_15h17.45.508,Rewa's Exp,2023.1.2,59.84981287949168,
2,Countdown_2s.mp4,"[-1.0, 1.0, -1.0]",red,left,Countdown_2s.jpg,6,0,6,0,0,0,0,2,0,0,0,0,,,,,0,0,0,3,,,,,,,,619.6867000000002,620.3334804999995,0.646780499999295,,,,,20,51:49,1,,left,1,0.6248328000001493,None,,,,,,,,,,Tokka,2 - with skip,"54:46, 51:49","2.5s, 2.0s",2023-07-20_15h17.45.508,Rewa's Exp,2023.1.2,59.84981287949168,
2,Countdown_2s.mp4,red,"[-1.0, 1.0, -1.0]",right,Countdown_2s.jpg,6,0,6,0,0,0,0,2,0,0,0,0,,,,,0,1,1,1,,,,,,,,624.2533023999995,625.2509730000002,0.9976706000006743,,,,,18,51:49,-2,,left,0,0.9785234999999375,None,,,,,,,,,,Tokka,2 - with skip,"54:46, 51:49","2.5s, 2.0s",2023-07-20_15h17.45.508,Rewa's Exp,2023.1.2,59.84981287949168,
2.5,Countdown_2.5s.mp4,"[-1.0, 1.0, -1.0]",red,left,Countdown_2.5s.jpg,6,0,6,0,0,0,0,2,0,0,0,0,,,,,0,2,2,2,,,,,,,,629.2139606000001,630.4334552999999,1.2194946999998137,,,,,19,51:49,1,,left,1,1.2022649999998976,None,,,,,,,,,,Tokka,2 - with skip,"54:46, 51:49","2.5s, 2.0s",2023-07-20_15h17.45.508,Rewa's Exp,2023.1.2,59.84981287949168,
2.5,Countdown_2.5s.mp4,red,"[-1.0, 1.0, -1.0]",right,Countdown_2.5s.jpg,6,0,6,0,0,0,0,2,0,0,0,0,,,,,0,3,3,0,,,,,,,,634.3296744999998,635.1053580999996,0.7756835999998657,,,,,20,51:49,1,,right,1,0.7579796999998507,None,,,,,,,,,,Tokka,2 - with skip,"54:46, 51:49","2.5s, 2.0s",2023-07-20_15h17.45.508,Rewa's Exp,2023.1.2,59.84981287949168,
2,Countdown_2s.mp4,red,"[-1.0, 1.0, -1.0]",right,Countdown_2s.jpg,6,0,6,0,0,0,0,2,0,0,0,0,,,,,1,0,4,1,,,,,,,,639.0434896999996,639.8168896999996,0.7734000000000378,,,,,18,51:49,-2,,left,0,0.7406271999998353,None,,,,,,,,,,Tokka,2 - with skip,"54:46, 51:49","2.5s, 2.0s",2023-07-20_15h17.45.508,Rewa's Exp,2023.1.2,59.84981287949168,
2.5,Countdown_2.5s.mp4,red,"[-1.0, 1.0, -1.0]",right,Countdown_2.5s.jpg,6,0,6,0,0,0,0,2,0,0,0,0,,,,,1,1,5,0,,,,,,,,643.7664993999997,644.9502704999995,1.1837710999998308,,,,,16,51:49,-2,,left,0,1.1609936999993806,None,,,,,,,,,,Tokka,2 - with skip,"54:46, 51:49","2.5s, 2.0s",2023-07-20_15h17.45.508,Rewa's Exp,2023.1.2,59.84981287949168,
2.5,Countdown_2.5s.mp4,"[-1.0, 1.0, -1.0]",red,left,Countdown_2.5s.jpg,6,0,6,0,0,0,0,2,0,0,0,0,,,,,1,2,6,2,,,,,,,,648.8612653,650.0834888999998,1.2222235999997793,,,,,14,51:49,-2,,right,0,1.194180000000415,None,,,,,,,,,,Tokka,2 - with skip,"54:46, 51:49","2.5s, 2.0s",2023-07-20_15h17.45.508,Rewa's Exp,2023.1.2,59.84981287949168,
2,Countdown_2s.mp4,"[-1.0, 1.0, -1.0]",red,left,Countdown_2s.jpg,6,0,6,0,0,0,0,2,0,0,0,0,,,,,1,3,7,3,,,,,,,,653.9784454,654.6005354999998,0.6220900999996957,,,,,15,51:49,1,,left,1,0.5905572000001484,None,,,,,,,,,,Tokka,2 - with skip,"54:46, 51:49","2.5s, 2.0s",2023-07-20_15h17.45.508,Rewa's Exp,2023.1.2,59.84981287949168,
2.5,Countdown_2.5s.mp4,red,"[-1.0, 1.0, -1.0]",right,Countdown_2.5s.jpg,6,0,6,0,0,0,0,2,0,0,0,0,,,,,,,,,,,,,,,,,,,,,,,,,,,,,,,,661.2214934000003,661.2214934000003,661.2214934000003,661.2214934000003,space,1.3558106000000407,,,Tokka,2 - with skip,"54:46, 51:49","2.5s, 2.0s",2023-07-20_15h17.45.508,Rewa's Exp,2023.1.2,59.84981287949168,
2,Countdown_2s.mp4,red,"[-1.0, 1.0, -1.0]",right,Countdown_2s.jpg,7,0,7,0,0,0,0,3,0,0,0,2,0,0,0,1,,,,,,,,,,,,659.9388380999999,661.2505454000002,1.3117073000003074,left,0,1.2929305999996359,None,13,54:46,-2,,,,,,,,,,,,,,,Tokka,2 - with skip,"54:46, 51:49","2.5s, 2.0s",2023-07-20_15h17.45.508,Rewa's Exp,2023.1.2,59.84981287949168,
2,Countdown_2s.mp4,"[-1.0, 1.0, -1.0]",red,left,Countdown_2s.jpg,7,0,7,0,0,0,0,3,0,0,0,2,0,1,1,3,,,,,,,,,,,,665.2186942999997,666.0671026999999,0.848408400000153,left,1,0.8289148000003479,None,14,54:46,1,,,,,,,,,,,,,,,Tokka,2 - with skip,"54:46, 51:49","2.5s, 2.0s",2023-07-20_15h17.45.508,Rewa's Exp,2023.1.2,59.84981287949168,
2.5,Countdown_2.5s.mp4,"[-1.0, 1.0, -1.0]",red,left,Countdown_2.5s.jpg,7,0,7,0,0,0,0,3,0,0,0,2,0,2,2,2,,,,,,,,,,,,670.0204524000001,671.350394,1.3299415999999837,left,1,1.3071117999998023,None,15,54:46,1,,,,,,,,,,,,,,,Tokka,2 - with skip,"54:46, 51:49","2.5s, 2.0s",2023-07-20_15h17.45.508,Rewa's Exp,2023.1.2,59.84981287949168,
2.5,Countdown_2.5s.mp4,red,"[-1.0, 1.0, -1.0]",right,Countdown_2.5s.jpg,7,0,7,0,0,0,0,3,0,0,0,2,0,3,3,0,,,,,,,,,,,,675.3013236999996,676.5502569,1.2489332000004651,right,1,1.225444300000163,None,16,54:46,1,,,,,,,,,,,,,,,Tokka,2 - with skip,"54:46, 51:49","2.5s, 2.0s",2023-07-20_15h17.45.508,Rewa's Exp,2023.1.2,59.84981287949168,
2.5,Countdown_2.5s.mp4,red,"[-1.0, 1.0, -1.0]",right,Countdown_2.5s.jpg,7,0,7,0,0,0,0,3,0,0,0,2,1,0,4,0,,,,,,,,,,,,680.4939710999997,681.4673364,0.973365300000296,None,0,,space,16,54:46,0,0.9453684999998586,,,,,,,,,,,,,,Tokka,2 - with skip,"54:46, 51:49","2.5s, 2.0s",2023-07-20_15h17.45.508,Rewa's Exp,2023.1.2,59.84981287949168,
2,Countdown_2s.mp4,"[-1.0, 1.0, -1.0]",red,left,Countdown_2s.jpg,7,0,7,0,0,0,0,3,0,0,0,2,1,1,5,3,,,,,,,,,,,,685.4102662999994,686.1336155999998,0.7233493000003364,left,1,0.7023253999996086,None,17,54:46,1,,,,,,,,,,,,,,,Tokka,2 - with skip,"54:46, 51:49","2.5s, 2.0s",2023-07-20_15h17.45.508,Rewa's Exp,2023.1.2,59.84981287949168,
2,Countdown_2s.mp4,red,"[-1.0, 1.0, -1.0]",right,Countdown_2s.jpg,7,0,7,0,0,0,0,3,0,0,0,2,1,2,6,1,,,,,,,,,,,,690.0516123999996,691.0171842999998,0.9655719000002136,right,1,0.9400690000002214,None,18,54:46,1,,,,,,,,,,,,,,,Tokka,2 - with skip,"54:46, 51:49","2.5s, 2.0s",2023-07-20_15h17.45.508,Rewa's Exp,2023.1.2,59.84981287949168,
2.5,Countdown_2.5s.mp4,"[-1.0, 1.0, -1.0]",red,left,Countdown_2.5s.jpg,7,0,7,0,0,0,0,3,0,0,0,2,1,3,7,2,,,,,,,,,,,,694.9464066,695.8005126999997,0.8541060999996262,left,1,0.8374379999995654,None,19,54:46,1,,,,,,,,,,,,,,,Tokka,2 - with skip,"54:46, 51:49","2.5s, 2.0s",2023-07-20_15h17.45.508,Rewa's Exp,2023.1.2,59.84981287949168,
2.5,Countdown_2.5s.mp4,"[-1.0, 1.0, -1.0]",red,left,Countdown_2.5s.jpg,7,0,7,0,0,0,0,3,0,0,0,2,,,,,0,0,0,2,,,,,,,,699.7044534999995,700.8004567999997,1.0960033000001204,,,,,17,51:49,-2,,right,0,1.0703680999995413,None,,,,,,,,,,Tokka,2 - with skip,"54:46, 51:49","2.5s, 2.0s",2023-07-20_15h17.45.508,Rewa's Exp,2023.1.2,59.84981287949168,
2,Countdown_2s.mp4,red,"[-1.0, 1.0, -1.0]",right,Countdown_2s.jpg,7,0,7,0,0,0,0,3,0,0,0,2,,,,,0,1,1,1,,,,,,,,704.6981280999998,705.5002740999998,0.8021459999999934,,,,,15,51:49,-2,,left,0,0.7825796999995873,None,,,,,,,,,,Tokka,2 - with skip,"54:46, 51:49","2.5s, 2.0s",2023-07-20_15h17.45.508,Rewa's Exp,2023.1.2,59.84981287949168,
2.5,Countdown_2.5s.mp4,red,"[-1.0, 1.0, -1.0]",right,Countdown_2.5s.jpg,7,0,7,0,0,0,0,3,0,0,0,2,,,,,0,2,2,0,,,,,,,,709.4085919999998,710.5670018000001,1.1584098000002996,,,,,15,51:49,0,,None,0,,space,1.1264996999998402,,,,,,,,,Tokka,2 - with skip,"54:46, 51:49","2.5s, 2.0s",2023-07-20_15h17.45.508,Rewa's Exp,2023.1.2,59.84981287949168,
2,Countdown_2s.mp4,"[-1.0, 1.0, -1.0]",red,left,Countdown_2s.jpg,7,0,7,0,0,0,0,3,0,0,0,2,,,,,0,3,3,3,,,,,,,,714.4933961999996,715.4504772,0.9570810000004712,,,,,16,51:49,1,,left,1,0.938347999999678,None,,,,,,,,,,Tokka,2 - with skip,"54:46, 51:49","2.5s, 2.0s",2023-07-20_15h17.45.508,Rewa's Exp,2023.1.2,59.84981287949168,
2.5,Countdown_2.5s.mp4,"[-1.0, 1.0, -1.0]",red,left,Countdown_2.5s.jpg,7,0,7,0,0,0,0,3,0,0,0,2,,,,,1,0,4,2,,,,,,,,719.3882475,720.5170245999998,1.128777099999752,,,,,14,51:49,-2,,right,0,1.108518600000025,None,,,,,,,,,,Tokka,2 - with skip,"54:46, 51:49","2.5s, 2.0s",2023-07-20_15h17.45.508,Rewa's Exp,2023.1.2,59.84981287949168,
2,Countdown_2s.mp4,"[-1.0, 1.0, -1.0]",red,left,Countdown_2s.jpg,7,0,7,0,0,0,0,3,0,0,0,2,,,,,1,1,5,3,,,,,,,,724.4197684000001,725.2006249999995,0.7808565999994244,,,,,12,51:49,-2,,right,0,0.7484993999996732,None,,,,,,,,,,Tokka,2 - with skip,"54:46, 51:49","2.5s, 2.0s",2023-07-20_15h17.45.508,Rewa's Exp,2023.1.2,59.84981287949168,
2,Countdown_2s.mp4,red,"[-1.0, 1.0, -1.0]",right,Countdown_2s.jpg,7,0,7,0,0,0,0,3,0,0,0,2,,,,,1,2,6,1,,,,,,,,729.0922838999995,730.0171682,0.9248843000004854,,,,,10,51:49,-2,,left,0,0.8916336999991472,None,,,,,,,,,,Tokka,2 - with skip,"54:46, 51:49","2.5s, 2.0s",2023-07-20_15h17.45.508,Rewa's Exp,2023.1.2,59.84981287949168,
2.5,Countdown_2.5s.mp4,red,"[-1.0, 1.0, -1.0]",right,Countdown_2.5s.jpg,7,0,7,0,0,0,0,3,0,0,0,2,,,,,1,3,7,0,,,,,,,,733.9311116999997,735.2504463999994,1.319334699999672,,,,,10,51:49,0,,None,0,,space,1.2998717999998917,,,,,,,,,Tokka,2 - with skip,"54:46, 51:49","2.5s, 2.0s",2023-07-20_15h17.45.508,Rewa's Exp,2023.1.2,59.84981287949168,
2.5,Countdown_2.5s.mp4,"[-1.0, 1.0, -1.0]",red,left,Countdown_2.5s.jpg,7,0,7,0,0,0,0,3,0,0,0,2,,,,,,,,,,,,,,,,,,,,,,,,,,,,,,,,741.8461637999999,741.8461637999999,741.8461637999999,741.8461637999999,space,0.7799485999994431,,,Tokka,2 - with skip,"54:46, 51:49","2.5s, 2.0s",2023-07-20_15h17.45.508,Rewa's Exp,2023.1.2,59.84981287949168,
2.5,Countdown_2.5s.mp4,"[-1.0, 1.0, -1.0]",red,left,Countdown_2.5s.jpg,8,0,8,0,0,0,0,2,0,0,0,1,0,0,0,2,,,,,,,,,,,,739.9618350000001,740.7508946999997,0.7890596999995978,left,1,0.7575842999995075,None,11,54:46,1,,,,,,,,,,,,,,,Tokka,2 - with skip,"54:46, 51:49","2.5s, 2.0s",2023-07-20_15h17.45.508,Rewa's Exp,2023.1.2,59.84981287949168,
2.5,Countdown_2.5s.mp4,red,"[-1.0, 1.0, -1.0]",right,Countdown_2.5s.jpg,8,0,8,0,0,0,0,2,0,0,0,1,0,1,1,0,,,,,,,,,,,,744.6844516000001,745.5673331999997,0.8828815999995641,right,1,0.8515605000002324,None,12,54:46,1,,,,,,,,,,,,,,,Tokka,2 - with skip,"54:46, 51:49","2.5s, 2.0s",2023-07-20_15h17.45.508,Rewa's Exp,2023.1.2,59.84981287949168,
2,Countdown_2s.mp4,"[-1.0, 1.0, -1.0]",red,left,Countdown_2s.jpg,8,0,8,0,0,0,0,2,0,0,0,1,0,2,2,3,,,,,,,,,,,,749.4877412999995,750.2505964000002,0.7628551000007064,left,1,0.7439726000002338,None,13,54:46,1,,,,,,,,,,,,,,,Tokka,2 - with skip,"54:46, 51:49","2.5s, 2.0s",2023-07-20_15h17.45.508,Rewa's Exp,2023.1.2,59.84981287949168,
2,Countdown_2s.mp4,red,"[-1.0, 1.0, -1.0]",right,Countdown_2s.jpg,8,0,8,0,0,0,0,2,0,0,0,1,0,3,3,1,,,,,,,,,,,,754.1707519000001,755.1005808,0.9298288999998476,right,1,0.9098922999992283,None,14,54:46,1,,,,,,,,,,,,,,,Tokka,2 - with skip,"54:46, 51:49","2.5s, 2.0s",2023-07-20_15h17.45.508,Rewa's Exp,2023.1.2,59.84981287949168,
2.5,Countdown_2.5s.mp4,red,"[-1.0, 1.0, -1.0]",right,Countdown_2.5s.jpg,8,0,8,0,0,0,0,2,0,0,0,1,1,0,4,0,,,,,,,,,,,,759.0550330999995,759.9675548999994,0.9125217999999222,left,0,0.8891369000002669,None,12,54:46,-2,,,,,,,,,,,,,,,Tokka,2 - with skip,"54:46, 51:49","2.5s, 2.0s",2023-07-20_15h17.45.508,Rewa's Exp,2023.1.2,59.84981287949168,
2.5,Countdown_2.5s.mp4,"[-1.0, 1.0, -1.0]",red,left,Countdown_2.5s.jpg,8,0,8,0,0,0,0,2,0,0,0,1,1,1,5,2,,,,,,,,,,,,763.9360201,764.7507598000002,0.8147397000002456,left,1,0.7921378999999433,None,13,54:46,1,,,,,,,,,,,,,,,Tokka,2 - with skip,"54:46, 51:49","2.5s, 2.0s",2023-07-20_15h17.45.508,Rewa's Exp,2023.1.2,59.84981287949168,
2,Countdown_2s.mp4,red,"[-1.0, 1.0, -1.0]",right,Countdown_2s.jpg,8,0,8,0,0,0,0,2,0,0,0,1,1,2,6,1,,,,,,,,,,,,768.6622113000003,769.7677099000002,1.105498599999919,None,0,,space,13,54:46,0,1.0811092000003555,,,,,,,,,,,,,,Tokka,2 - with skip,"54:46, 51:49","2.5s, 2.0s",2023-07-20_15h17.45.508,Rewa's Exp,2023.1.2,59.84981287949168,
2,Countdown_2s.mp4,"[-1.0, 1.0, -1.0]",red,left,Countdown_2s.jpg,8,0,8,0,0,0,0,2,0,0,0,1,1,3,7,3,,,,,,,,,,,,773.6919827000002,774.3838410999997,0.6918583999995462,left,1,0.6598697999997967,None,14,54:46,1,,,,,,,,,,,,,,,Tokka,2 - with skip,"54:46, 51:49","2.5s, 2.0s",2023-07-20_15h17.45.508,Rewa's Exp,2023.1.2,59.84981287949168,
2.5,Countdown_2.5s.mp4,"[-1.0, 1.0, -1.0]",red,left,Countdown_2.5s.jpg,8,0,8,0,0,0,0,2,0,0,0,1,,,,,0,0,0,2,,,,,,,,778.2916519,779.1838326999996,0.8921807999995508,,,,,15,51:49,1,,left,1,0.8680223999999725,None,,,,,,,,,,Tokka,2 - with skip,"54:46, 51:49","2.5s, 2.0s",2023-07-20_15h17.45.508,Rewa's Exp,2023.1.2,59.84981287949168,
2,Countdown_2s.mp4,"[-1.0, 1.0, -1.0]",red,left,Countdown_2s.jpg,8,0,8,0,0,0,0,2,0,0,0,1,,,,,0,1,1,3,,,,,,,,783.1292925999996,784.1339007999995,1.0046081999998933,,,,,15,51:49,0,,None,0,,space,0.9812482999996064,,,,,,,,,Tokka,2 - with skip,"54:46, 51:49","2.5s, 2.0s",2023-07-20_15h17.45.508,Rewa's Exp,2023.1.2,59.84981287949168,
2.5,Countdown_2.5s.mp4,red,"[-1.0, 1.0, -1.0]",right,Countdown_2.5s.jpg,8,0,8,0,0,0,0,2,0,0,0,1,,,,,0,2,2,0,,,,,,,,788.0565922999995,789.1006049999996,1.0440127000001667,,,,,16,51:49,1,,right,1,1.023646099999496,None,,,,,,,,,,Tokka,2 - with skip,"54:46, 51:49","2.5s, 2.0s",2023-07-20_15h17.45.508,Rewa's Exp,2023.1.2,59.84981287949168,
2,Countdown_2s.mp4,red,"[-1.0, 1.0, -1.0]",right,Countdown_2s.jpg,8,0,8,0,0,0,0,2,0,0,0,1,,,,,0,3,3,1,,,,,,,,793.0293853000003,793.9504699999998,0.9210846999994828,,,,,17,51:49,1,,right,1,0.8989333999998053,None,,,,,,,,,,Tokka,2 - with skip,"54:46, 51:49","2.5s, 2.0s",2023-07-20_15h17.45.508,Rewa's Exp,2023.1.2,59.84981287949168,
2.5,Countdown_2.5s.mp4,red,"[-1.0, 1.0, -1.0]",right,Countdown_2.5s.jpg,8,0,8,0,0,0,0,2,0,0,0,1,,,,,1,0,4,0,,,,,,,,797.8742362000003,798.9672873,1.093051099999684,,,,,18,51:49,1,,right,1,1.0693447000003289,None,,,,,,,,,,Tokka,2 - with skip,"54:46, 51:49","2.5s, 2.0s",2023-07-20_15h17.45.508,Rewa's Exp,2023.1.2,59.84981287949168,
2.5,Countdown_2.5s.mp4,"[-1.0, 1.0, -1.0]",red,left,Countdown_2.5s.jpg,8,0,8,0,0,0,0,2,0,0,0,1,,,,,1,1,5,2,,,,,,,,802.9160787000001,803.9508964999995,1.0348177999994732,,,,,18,51:49,0,,None,0,,space,1.0026697000002969,,,,,,,,,Tokka,2 - with skip,"54:46, 51:49","2.5s, 2.0s",2023-07-20_15h17.45.508,Rewa's Exp,2023.1.2,59.84981287949168,
2,Countdown_2s.mp4,"[-1.0, 1.0, -1.0]",red,left,Countdown_2s.jpg,8,0,8,0,0,0,0,2,0,0,0,1,,,,,1,2,6,3,,,,,,,,807.9157416999997,808.6511283999998,0.7353867000001628,,,,,16,51:49,-2,,right,0,0.7164458000006562,None,,,,,,,,,,Tokka,2 - with skip,"54:46, 51:49","2.5s, 2.0s",2023-07-20_15h17.45.508,Rewa's Exp,2023.1.2,59.84981287949168,
2,Countdown_2s.mp4,red,"[-1.0, 1.0, -1.0]",right,Countdown_2s.jpg,8,0,8,0,0,0,0,2,0,0,0,1,,,,,1,3,7,1,,,,,,,,812.5574913,813.4675597999994,0.9100684999993973,,,,,14,51:49,-2,,left,0,0.8910169999999198,None,,,,,,,,,,Tokka,2 - with skip,"54:46, 51:49","2.5s, 2.0s",2023-07-20_15h17.45.508,Rewa's Exp,2023.1.2,59.84981287949168,
2,Countdown_2s.mp4,red,"[-1.0, 1.0, -1.0]",right,Countdown_2s.jpg,8,0,8,0,0,0,0,2,0,0,0,1,,,,,,,,,,,,,,,,,,,,,,,,,,,,,,,,820.0855290999998,820.0855290999998,820.0855290999998,820.0855290999998,space,1.117111699999441,,,Tokka,2 - with skip,"54:46, 51:49","2.5s, 2.0s",2023-07-20_15h17.45.508,Rewa's Exp,2023.1.2,59.84981287949168,
2,Countdown_2s.mp4,"[-1.0, 1.0, -1.0]",red,left,Countdown_2s.jpg,9,0,9,0,0,0,0,2,0,0,0,0,0,0,0,3,,,,,,,,,,,,818.5495578999999,819.5339739000001,0.9844160000002375,None,0,,space,14,54:46,0,0.9533861999998408,,,,,,,,,,,,,,Tokka,2 - with skip,"54:46, 51:49","2.5s, 2.0s",2023-07-20_15h17.45.508,Rewa's Exp,2023.1.2,59.84981287949168,
2.5,Countdown_2.5s.mp4,red,"[-1.0, 1.0, -1.0]",right,Countdown_2.5s.jpg,9,0,9,0,0,0,0,2,0,0,0,0,0,1,1,0,,,,,,,,,,,,823.4381124000001,824.2005569000003,0.7624445000001288,right,1,0.7311120000003939,None,15,54:46,1,,,,,,,,,,,,,,,Tokka,2 - with skip,"54:46, 51:49","2.5s, 2.0s",2023-07-20_15h17.45.508,Rewa's Exp,2023.1.2,59.84981287949168,
2,Countdown_2s.mp4,red,"[-1.0, 1.0, -1.0]",right,Countdown_2s.jpg,9,0,9,0,0,0,0,2,0,0,0,0,0,2,2,1,,,,,,,,,,,,828.1483134,829.3841432999998,1.2358298999997714,None,0,,space,15,54:46,0,1.2021490999995876,,,,,,,,,,,,,,Tokka,2 - with skip,"54:46, 51:49","2.5s, 2.0s",2023-07-20_15h17.45.508,Rewa's Exp,2023.1.2,59.84981287949168,
2.5,Countdown_2.5s.mp4,"[-1.0, 1.0, -1.0]",red,left,Countdown_2.5s.jpg,9,0,9,0,0,0,0,2,0,0,0,0,0,3,3,2,,,,,,,,,,,,833.3469703999999,834.5008883,1.153917900000124,left,1,1.1239309999991747,None,16,54:46,1,,,,,,,,,,,,,,,Tokka,2 - with skip,"54:46, 51:49","2.5s, 2.0s",2023-07-20_15h17.45.508,Rewa's Exp,2023.1.2,59.84981287949168,
2.5,Countdown_2.5s.mp4,red,"[-1.0, 1.0, -1.0]",right,Countdown_2.5s.jpg,9,0,9,0,0,0,0,2,0,0,0,0,1,0,4,0,,,,,,,,,,,,838.4807544999994,839.2175551,0.7368006000006062,right,1,0.7195421999995233,None,17,54:46,1,,,,,,,,,,,,,,,Tokka,2 - with skip,"54:46, 51:49","2.5s, 2.0s",2023-07-20_15h17.45.508,Rewa's Exp,2023.1.2,59.84981287949168,
2.5,Countdown_2.5s.mp4,"[-1.0, 1.0, -1.0]",red,left,Countdown_2.5s.jpg,9,0,9,0,0,0,0,2,0,0,0,0,1,1,5,2,,,,,,,,,,,,843.1287657000003,844.0176074999999,0.8888417999996818,left,1,0.8555962999998883,None,18,54:46,1,,,,,,,,,,,,,,,Tokka,2 - with skip,"54:46, 51:49","2.5s, 2.0s",2023-07-20_15h17.45.508,Rewa's Exp,2023.1.2,59.84981287949168,
2,Countdown_2s.mp4,red,"[-1.0, 1.0, -1.0]",right,Countdown_2s.jpg,9,0,9,0,0,0,0,2,0,0,0,0,1,2,6,1,,,,,,,,,,,,847.9318702999999,848.6339627999996,0.7020924999997078,right,1,0.6846580000001268,None,19,54:46,1,,,,,,,,,,,,,,,Tokka,2 - with skip,"54:46, 51:49","2.5s, 2.0s",2023-07-20_15h17.45.508,Rewa's Exp,2023.1.2,59.84981287949168,
2,Countdown_2s.mp4,"[-1.0, 1.0, -1.0]",red,left,Countdown_2s.jpg,9,0,9,0,0,0,0,2,0,0,0,0,1,3,7,3,,,,,,,,,,,,852.5242817999997,853.2507788000003,0.7264970000005633,left,1,0.6988576000003377,None,20,54:46,1,,,,,,,,,,,,,,,Tokka,2 - with skip,"54:46, 51:49","2.5s, 2.0s",2023-07-20_15h17.45.508,Rewa's Exp,2023.1.2,59.84981287949168,
2.5,Countdown_2.5s.mp4,red,"[-1.0, 1.0, -1.0]",right,Countdown_2.5s.jpg,9,0,9,0,0,0,0,2,0,0,0,0,,,,,0,0,0,0,,,,,,,,857.1752544999999,857.8339258999995,0.6586713999995482,,,,,21,51:49,1,,right,1,0.640588299999763,None,,,,,,,,,,Tokka,2 - with skip,"54:46, 51:49","2.5s, 2.0s",2023-07-20_15h17.45.508,Rewa's Exp,2023.1.2,59.84981287949168,
2.5,Countdown_2.5s.mp4,"[-1.0, 1.0, -1.0]",red,left,Countdown_2.5s.jpg,9,0,9,0,0,0,0,2,0,0,0,0,,,,,0,1,1,2,,,,,,,,861.7463115999999,862.4675083000002,0.7211967000002915,,,,,22,51:49,1,,left,1,0.6938832999994702,None,,,,,,,,,,Tokka,2 - with skip,"54:46, 51:49","2.5s, 2.0s",2023-07-20_15h17.45.508,Rewa's Exp,2023.1.2,59.84981287949168,
2,Countdown_2s.mp4,"[-1.0, 1.0, -1.0]",red,left,Countdown_2s.jpg,9,0,9,0,0,0,0,2,0,0,0,0,,,,,0,2,2,3,,,,,,,,866.3863049000001,867.3343224999999,0.94801759999973,,,,,20,51:49,-2,,right,0,0.9252640000004249,None,,,,,,,,,,Tokka,2 - with skip,"54:46, 51:49","2.5s, 2.0s",2023-07-20_15h17.45.508,Rewa's Exp,2023.1.2,59.84981287949168,
2,Countdown_2s.mp4,red,"[-1.0, 1.0, -1.0]",right,Countdown_2s.jpg,9,0,9,0,0,0,0,2,0,0,0,0,,,,,0,3,3,1,,,,,,,,871.2693244000002,872.3672811999995,1.0979567999993378,,,,,18,51:49,-2,,left,0,1.0743189999993774,None,,,,,,,,,,Tokka,2 - with skip,"54:46, 51:49","2.5s, 2.0s",2023-07-20_15h17.45.508,Rewa's Exp,2023.1.2,59.84981287949168,
2.5,Countdown_2.5s.mp4,"[-1.0, 1.0, -1.0]",red,left,Countdown_2.5s.jpg,9,0,9,0,0,0,0,2,0,0,0,0,,,,,1,0,4,2,,,,,,,,876.2675506999994,877.2340456000002,0.9664949000007255,,,,,19,51:49,1,,left,1,0.9491223999993963,None,,,,,,,,,,Tokka,2 - with skip,"54:46, 51:49","2.5s, 2.0s",2023-07-20_15h17.45.508,Rewa's Exp,2023.1.2,59.84981287949168,
2.5,Countdown_2.5s.mp4,red,"[-1.0, 1.0, -1.0]",right,Countdown_2.5s.jpg,9,0,9,0,0,0,0,2,0,0,0,0,,,,,1,1,5,0,,,,,,,,881.1402865,882.4008181999998,1.260531699999774,,,,,17,51:49,-2,,left,0,1.2358708999990995,None,,,,,,,,,,Tokka,2 - with skip,"54:46, 51:49","2.5s, 2.0s",2023-07-20_15h17.45.508,Rewa's Exp,2023.1.2,59.84981287949168,
2,Countdown_2s.mp4,red,"[-1.0, 1.0, -1.0]",right,Countdown_2s.jpg,9,0,9,0,0,0,0,2,0,0,0,0,,,,,1,2,6,1,,,,,,,,886.3076175999995,887.2178102999997,0.9101927000001524,,,,,17,51:49,0,,None,0,,space,0.8916574999993827,,,,,,,,,Tokka,2 - with skip,"54:46, 51:49","2.5s, 2.0s",2023-07-20_15h17.45.508,Rewa's Exp,2023.1.2,59.84981287949168,
2,Countdown_2s.mp4,"[-1.0, 1.0, -1.0]",red,left,Countdown_2s.jpg,9,0,9,0,0,0,0,2,0,0,0,0,,,,,1,3,7,3,,,,,,,,891.1509924000002,892.0340778999998,0.8830854999996518,,,,,18,51:49,1,,left,1,0.8656761000002007,None,,,,,,,,,,Tokka,2 - with skip,"54:46, 51:49","2.5s, 2.0s",2023-07-20_15h17.45.508,Rewa's Exp,2023.1.2,59.84981287949168,
2.5,Countdown_2.5s.mp4,red,"[-1.0, 1.0, -1.0]",right,Countdown_2.5s.jpg,9,0,9,0,0,0,0,2,0,0,0,0,,,,,,,,,,,,,,,,,,,,,,,,,,,,,,,,898.6429502000001,898.6429502000001,898.6429502000001,898.6429502000001,space,1.7273466999995435,,,Tokka,2 - with skip,"54:46, 51:49","2.5s, 2.0s",2023-07-20_15h17.45.508,Rewa's Exp,2023.1.2,59.84981287949168,
2,Countdown_2s.mp4,"[-1.0, 1.0, -1.0]",red,left,Countdown_2s.jpg,10,0,10,0,0,0,0,1,0,0,0,0,0,0,0,3,,,,,,,,,,,,897.7410921999999,898.8008042000001,1.0597120000002178,left,1,1.0273118000004615,None,19,54:46,1,,,,,,,,,,,,,,,Tokka,2 - with skip,"54:46, 51:49","2.5s, 2.0s",2023-07-20_15h17.45.508,Rewa's Exp,2023.1.2,59.84981287949168,
2.5,Countdown_2.5s.mp4,"[-1.0, 1.0, -1.0]",red,left,Countdown_2.5s.jpg,10,0,10,0,0,0,0,1,0,0,0,0,0,1,1,2,,,,,,,,,,,,902.6874449999996,903.6842336,0.9967886000004,left,1,0.9676929999995991,None,20,54:46,1,,,,,,,,,,,,,,,Tokka,2 - with skip,"54:46, 51:49","2.5s, 2.0s",2023-07-20_15h17.45.508,Rewa's Exp,2023.1.2,59.84981287949168,
2.5,Countdown_2.5s.mp4,red,"[-1.0, 1.0, -1.0]",right,Countdown_2.5s.jpg,10,0,10,0,0,0,0,1,0,0,0,0,0,2,2,0,,,,,,,,,,,,907.6175729999995,908.9507238999995,1.3331508999999642,None,0,,space,20,54:46,0,1.3016262999999526,,,,,,,,,,,,,,Tokka,2 - with skip,"54:46, 51:49","2.5s, 2.0s",2023-07-20_15h17.45.508,Rewa's Exp,2023.1.2,59.84981287949168,
2,Countdown_2s.mp4,red,"[-1.0, 1.0, -1.0]",right,Countdown_2s.jpg,10,0,10,0,0,0,0,1,0,0,0,0,0,3,3,1,,,,,,,,,,,,912.8981358999999,914.1678353999996,1.2696994999996605,right,1,1.2459976999998617,None,21,54:46,1,,,,,,,,,,,,,,,Tokka,2 - with skip,"54:46, 51:49","2.5s, 2.0s",2023-07-20_15h17.45.508,Rewa's Exp,2023.1.2,59.84981287949168,
2,Countdown_2s.mp4,"[-1.0, 1.0, -1.0]",red,left,Countdown_2s.jpg,10,0,10,0,0,0,0,1,0,0,0,0,1,0,4,3,,,,,,,,,,,,918.0969035999997,918.8176283000003,0.7207247000005736,left,1,0.6952746999995725,None,22,54:46,1,,,,,,,,,,,,,,,Tokka,2 - with skip,"54:46, 51:49","2.5s, 2.0s",2023-07-20_15h17.45.508,Rewa's Exp,2023.1.2,59.84981287949168,
2.5,Countdown_2.5s.mp4,"[-1.0, 1.0, -1.0]",red,left,Countdown_2.5s.jpg,10,0,10,0,0,0,0,1,0,0,0,0,1,1,5,2,,,,,,,,,,,,922.7204339999998,923.4844414999998,0.7640074999999342,left,1,0.7351507000003039,None,23,54:46,1,,,,,,,,,,,,,,,Tokka,2 - with skip,"54:46, 51:49","2.5s, 2.0s",2023-07-20_15h17.45.508,Rewa's Exp,2023.1.2,59.84981287949168,
2,Countdown_2s.mp4,red,"[-1.0, 1.0, -1.0]",right,Countdown_2s.jpg,10,0,10,0,0,0,0,1,0,0,0,0,1,2,6,1,,,,,,,,,,,,927.4019754999999,928.1342609000003,0.7322854000003645,right,1,0.701424599999882,None,24,54:46,1,,,,,,,,,,,,,,,Tokka,2 - with skip,"54:46, 51:49","2.5s, 2.0s",2023-07-20_15h17.45.508,Rewa's Exp,2023.1.2,59.84981287949168,
2.5,Countdown_2.5s.mp4,red,"[-1.0, 1.0, -1.0]",right,Countdown_2.5s.jpg,10,0,10,0,0,0,0,1,0,0,0,0,1,3,7,0,,,,,,,,,,,,932.0504816000002,933.4015496000002,1.351067999999941,right,1,1.324747199999365,None,25,54:46,1,,,,,,,,,,,,,,,Tokka,2 - with skip,"54:46, 51:49","2.5s, 2.0s",2023-07-20_15h17.45.508,Rewa's Exp,2023.1.2,59.84981287949168,
2,Countdown_2s.mp4,"[-1.0, 1.0, -1.0]",red,left,Countdown_2s.jpg,10,0,10,0,0,0,0,1,0,0,0,0,,,,,0,0,0,3,,,,,,,,937.3696215,938.3674590999999,0.9978375999999116,,,,,23,51:49,-2,,right,0,0.9748755999999048,None,,,,,,,,,,Tokka,2 - with skip,"54:46, 51:49","2.5s, 2.0s",2023-07-20_15h17.45.508,Rewa's Exp,2023.1.2,59.84981287949168,
2.5,Countdown_2.5s.mp4,red,"[-1.0, 1.0, -1.0]",right,Countdown_2.5s.jpg,10,0,10,0,0,0,0,1,0,0,0,0,,,,,0,1,1,0,,,,,,,,942.2983942000001,943.4674190999995,1.1690248999993855,,,,,23,51:49,0,,None,0,,space,1.1490469999998822,,,,,,,,,Tokka,2 - with skip,"54:46, 51:49","2.5s, 2.0s",2023-07-20_15h17.45.508,Rewa's Exp,2023.1.2,59.84981287949168,
2.5,Countdown_2.5s.mp4,"[-1.0, 1.0, -1.0]",red,left,Countdown_2.5s.jpg,10,0,10,0,0,0,0,1,0,0,0,0,,,,,0,2,2,2,,,,,,,,947.3832615000001,948.4178192999998,1.034557799999675,,,,,24,51:49,1,,left,1,1.0083255999998073,None,,,,,,,,,,Tokka,2 - with skip,"54:46, 51:49","2.5s, 2.0s",2023-07-20_15h17.45.508,Rewa's Exp,2023.1.2,59.84981287949168,
2,Countdown_2s.mp4,red,"[-1.0, 1.0, -1.0]",right,Countdown_2s.jpg,10,0,10,0,0,0,0,1,0,0,0,0,,,,,0,3,3,1,,,,,,,,952.3898232000001,953.6008950999994,1.2110718999992969,,,,,24,51:49,0,,None,0,,space,1.1783621000004132,,,,,,,,,Tokka,2 - with skip,"54:46, 51:49","2.5s, 2.0s",2023-07-20_15h17.45.508,Rewa's Exp,2023.1.2,59.84981287949168,
2.5,Countdown_2.5s.mp4,"[-1.0, 1.0, -1.0]",red,left,Countdown_2.5s.jpg,10,0,10,0,0,0,0,1,0,0,0,0,,,,,1,0,4,2,,,,,,,,957.5573034999998,958.4009178999995,0.8436143999997512,,,,,25,51:49,1,,left,1,0.8267950999997993,None,,,,,,,,,,Tokka,2 - with skip,"54:46, 51:49","2.5s, 2.0s",2023-07-20_15h17.45.508,Rewa's Exp,2023.1.2,59.84981287949168,
2,Countdown_2s.mp4,"[-1.0, 1.0, -1.0]",red,left,Countdown_2s.jpg,10,0,10,0,0,0,0,1,0,0,0,0,,,,,1,1,5,3,,,,,,,,962.3137469000003,963.4842991999994,1.1705522999991445,,,,,26,51:49,1,,left,1,1.1525319000002128,None,,,,,,,,,,Tokka,2 - with skip,"54:46, 51:49","2.5s, 2.0s",2023-07-20_15h17.45.508,Rewa's Exp,2023.1.2,59.84981287949168,
2.5,Countdown_2.5s.mp4,red,"[-1.0, 1.0, -1.0]",right,Countdown_2.5s.jpg,10,0,10,0,0,0,0,1,0,0,0,0,,,,,1,2,6,0,,,,,,,,967.3798193000002,968.6008031000001,1.2209837999998854,,,,,27,51:49,1,,right,1,1.1962485999993078,None,,,,,,,,,,Tokka,2 - with skip,"54:46, 51:49","2.5s, 2.0s",2023-07-20_15h17.45.508,Rewa's Exp,2023.1.2,59.84981287949168,
2,Countdown_2s.mp4,red,"[-1.0, 1.0, -1.0]",right,Countdown_2s.jpg,10,0,10,0,0,0,0,1,0,0,0,0,,,,,1,3,7,1,,,,,,,,972.4956274999995,973.4175476,0.9219201000005341,,,,,25,51:49,-2,,left,0,0.9042722000003778,None,,,,,,,,,,Tokka,2 - with skip,"54:46, 51:49","2.5s, 2.0s",2023-07-20_15h17.45.508,Rewa's Exp,2023.1.2,59.84981287949168,
2.5,Countdown_2.5s.mp4,red,"[-1.0, 1.0, -1.0]",right,Countdown_2.5s.jpg,10,0,10,0,0,0,0,1,0,0,0,0,,,,,,,,,,,,,,,,,,,,,,,,,,,,,,,,980.0203425,980.0203425,980.0203425,980.0203425,space,1.5018070999994961,,,Tokka,2 - with skip,"54:46, 51:49","2.5s, 2.0s",2023-07-20_15h17.45.508,Rewa's Exp,2023.1.2,59.84981287949168,
2,Countdown_2s.mp4,"[-1.0, 1.0, -1.0]",red,left,Countdown_2s.jpg,11,0,11,0,0,0,0,0,0,0,0,0,0,0,0,3,,,,,,,,,,,,978.8952466000001,980.1842141999996,1.2889675999995234,right,0,1.2568245000002207,None,23,54:46,-2,,,,,,,,,,,,,,,Tokka,2 - with skip,"54:46, 51:49","2.5s, 2.0s",2023-07-20_15h17.45.508,Rewa's Exp,2023.1.2,59.84981287949168,
2.5,Countdown_2.5s.mp4,red,"[-1.0, 1.0, -1.0]",right,Countdown_2.5s.jpg,11,0,11,0,0,0,0,0,0,0,0,0,0,1,1,0,,,,,,,,,,,,984.1546926000001,985.0844474999994,0.9297548999993523,None,0,,space,23,54:46,0,0.90100639999946,,,,,,,,,,,,,,Tokka,2 - with skip,"54:46, 51:49","2.5s, 2.0s",2023-07-20_15h17.45.508,Rewa's Exp,2023.1.2,59.84981287949168,
2,Countdown_2s.mp4,red,"[-1.0, 1.0, -1.0]",right,Countdown_2s.jpg,11,0,11,0,0,0,0,0,0,0,0,0,0,2,2,1,,,,,,,,,,,,989.0311566,989.9344798000002,0.903323200000159,left,0,0.8717552999996769,None,21,54:46,-2,,,,,,,,,,,,,,,Tokka,2 - with skip,"54:46, 51:49","2.5s, 2.0s",2023-07-20_15h17.45.508,Rewa's Exp,2023.1.2,59.84981287949168,
2.5,Countdown_2.5s.mp4,"[-1.0, 1.0, -1.0]",red,left,Countdown_2.5s.jpg,11,0,11,0,0,0,0,0,0,0,0,0,0,3,3,2,,,,,,,,,,,,993.8669417000001,994.5012663999996,0.6343246999995245,left,1,0.6134106999998039,None,22,54:46,1,,,,,,,,,,,,,,,Tokka,2 - with skip,"54:46, 51:49","2.5s, 2.0s",2023-07-20_15h17.45.508,Rewa's Exp,2023.1.2,59.84981287949168,
2.5,Countdown_2.5s.mp4,"[-1.0, 1.0, -1.0]",red,left,Countdown_2.5s.jpg,11,0,11,0,0,0,0,0,0,0,0,0,1,0,4,2,,,,,,,,,,,,998.4682152999994,999.3846082999999,0.9163930000004257,left,1,0.8844945999999254,None,23,54:46,1,,,,,,,,,,,,,,,Tokka,2 - with skip,"54:46, 51:49","2.5s, 2.0s",2023-07-20_15h17.45.508,Rewa's Exp,2023.1.2,59.84981287949168,
2.5,Countdown_2.5s.mp4,red,"[-1.0, 1.0, -1.0]",right,Countdown_2.5s.jpg,11,0,11,0,0,0,0,0,0,0,0,0,1,1,5,0,,,,,,,,,,,,1003.3088430999996,1004.4179096999997,1.1090666000000056,None,0,,space,23,54:46,0,1.083057399999234,,,,,,,,,,,,,,Tokka,2 - with skip,"54:46, 51:49","2.5s, 2.0s",2023-07-20_15h17.45.508,Rewa's Exp,2023.1.2,59.84981287949168,
2,Countdown_2s.mp4,"[-1.0, 1.0, -1.0]",red,left,Countdown_2s.jpg,11,0,11,0,0,0,0,0,0,0,0,0,1,2,6,3,,,,,,,,,,,,1008.3526550999995,1009.0682213,0.7155662000004668,left,1,0.6871836000000258,None,24,54:46,1,,,,,,,,,,,,,,,Tokka,2 - with skip,"54:46, 51:49","2.5s, 2.0s",2023-07-20_15h17.45.508,Rewa's Exp,2023.1.2,59.84981287949168,
2,Countdown_2s.mp4,red,"[-1.0, 1.0, -1.0]",right,Countdown_2s.jpg,11,0,11,0,0,0,0,0,0,0,0,0,1,3,7,1,,,,,,,,,,,,1013.0356089999996,1013.8510225999999,0.8154136000002836,right,1,0.7881866999996419,None,25,54:46,1,,,,,,,,,,,,,,,Tokka,2 - with skip,"54:46, 51:49","2.5s, 2.0s",2023-07-20_15h17.45.508,Rewa's Exp,2023.1.2,59.84981287949168,
2.5,Countdown_2.5s.mp4,red,"[-1.0, 1.0, -1.0]",right,Countdown_2.5s.jpg,11,0,11,0,0,0,0,0,0,0,0,0,,,,,0,0,0,0,,,,,,,,1017.7500078000003,1018.8340443999996,1.0840365999993082,,,,,23,51:49,-2,,left,0,1.057764700000007,None,,,,,,,,,,Tokka,2 - with skip,"54:46, 51:49","2.5s, 2.0s",2023-07-20_15h17.45.508,Rewa's Exp,2023.1.2,59.84981287949168,
2,Countdown_2s.mp4,red,"[-1.0, 1.0, -1.0]",right,Countdown_2s.jpg,11,0,11,0,0,0,0,0,0,0,0,0,,,,,0,1,1,1,,,,,,,,1022.7647784000001,1023.4843590999999,0.719580699999824,,,,,21,51:49,-2,,left,0,0.691000200000417,None,,,,,,,,,,Tokka,2 - with skip,"54:46, 51:49","2.5s, 2.0s",2023-07-20_15h17.45.508,Rewa's Exp,2023.1.2,59.84981287949168,
2,Countdown_2s.mp4,"[-1.0, 1.0, -1.0]",red,left,Countdown_2s.jpg,11,0,11,0,0,0,0,0,0,0,0,0,,,,,0,2,2,3,,,,,,,,1027.4086735,1028.2177036000003,0.8090301000002,,,,,22,51:49,1,,left,1,0.7917123999995965,None,,,,,,,,,,Tokka,2 - with skip,"54:46, 51:49","2.5s, 2.0s",2023-07-20_15h17.45.508,Rewa's Exp,2023.1.2,59.84981287949168,
2.5,Countdown_2.5s.mp4,"[-1.0, 1.0, -1.0]",red,left,Countdown_2.5s.jpg,11,0,11,0,0,0,0,0,0,0,0,0,,,,,0,3,3,2,,,,,,,,1032.1270938999996,1033.0509753999995,0.9238814999998795,,,,,23,51:49,1,,left,1,0.9060842999997476,None,,,,,,,,,,Tokka,2 - with skip,"54:46, 51:49","2.5s, 2.0s",2023-07-20_15h17.45.508,Rewa's Exp,2023.1.2,59.84981287949168,
2.5,Countdown_2.5s.mp4,"[-1.0, 1.0, -1.0]",red,left,Countdown_2.5s.jpg,11,0,11,0,0,0,0,0,0,0,0,0,,,,,1,0,4,2,,,,,,,,1036.9719039000001,1037.6511278999997,0.6792239999995218,,,,,24,51:49,1,,left,1,0.6604147999996712,None,,,,,,,,,,Tokka,2 - with skip,"54:46, 51:49","2.5s, 2.0s",2023-07-20_15h17.45.508,Rewa's Exp,2023.1.2,59.84981287949168,
2,Countdown_2s.mp4,red,"[-1.0, 1.0, -1.0]",right,Countdown_2s.jpg,11,0,11,0,0,0,0,0,0,0,0,0,,,,,1,1,5,1,,,,,,,,1041.5759705,1042.3510165999996,0.7750460999995994,,,,,25,51:49,1,,right,1,0.7515129999992496,None,,,,,,,,,,Tokka,2 - with skip,"54:46, 51:49","2.5s, 2.0s",2023-07-20_15h17.45.508,Rewa's Exp,2023.1.2,59.84981287949168,
2.5,Countdown_2.5s.mp4,red,"[-1.0, 1.0, -1.0]",right,Countdown_2.5s.jpg,11,0,11,0,0,0,0,0,0,0,0,0,,,,,1,2,6,0,,,,,,,,1046.2413357999994,1047.0509628999998,0.8096271000003981,,,,,23,51:49,-2,,left,0,0.7821248000000196,None,,,,,,,,,,Tokka,2 - with skip,"54:46, 51:49","2.5s, 2.0s",2023-07-20_15h17.45.508,Rewa's Exp,2023.1.2,59.84981287949168,
2,Countdown_2s.mp4,"[-1.0, 1.0, -1.0]",red,left,Countdown_2s.jpg,11,0,11,0,0,0,0,0,0,0,0,0,,,,,1,3,7,3,,,,,,,,1050.9677382,1051.7517071000002,0.7839689000002181,,,,,24,51:49,1,,left,1,0.7604132000005848,None,,,,,,,,,,Tokka,2 - with skip,"54:46, 51:49","2.5s, 2.0s",2023-07-20_15h17.45.508,Rewa's Exp,2023.1.2,59.84981287949168,
2.5,Countdown_2.5s.mp4,red,"[-1.0, 1.0, -1.0]",right,Countdown_2.5s.jpg,11,0,11,0,0,0,0,0,0,0,0,0,,,,,,,,,,,,,,,,,,,,,,,,,,,,,,,,1058.3660223999996,1058.3660223999996,1058.3660223999996,1058.3660223999996,space,1.2993653000003178,,,Tokka,2 - with skip,"54:46, 51:49","2.5s, 2.0s",2023-07-20_15h17.45.508,Rewa's Exp,2023.1.2,59.84981287949168,
2.5,Countdown_2.5s.mp4,red,"[-1.0, 1.0, -1.0]",right,Countdown_2.5s.jpg,12,0,12,0,0,0,0,0,0,0,0,3,0,0,0,0,,,,,,,,,,,,1057.0448274999999,1058.0177249999997,0.9728974999998172,None,0,,space,24,54:46,0,0.9552303000000393,,,,,,,,,,,,,,Tokka,2 - with skip,"54:46, 51:49","2.5s, 2.0s",2023-07-20_15h17.45.508,Rewa's Exp,2023.1.2,59.84981287949168,
2.5,Countdown_2.5s.mp4,"[-1.0, 1.0, -1.0]",red,left,Countdown_2.5s.jpg,12,0,12,0,0,0,0,0,0,0,0,3,0,1,1,2,,,,,,,,,,,,1061.9062936,1062.8511951,0.9449015000000145,left,1,0.9265250999997079,None,25,54:46,1,,,,,,,,,,,,,,,Tokka,2 - with skip,"54:46, 51:49","2.5s, 2.0s",2023-07-20_15h17.45.508,Rewa's Exp,2023.1.2,59.84981287949168,
2,Countdown_2s.mp4,red,"[-1.0, 1.0, -1.0]",right,Countdown_2s.jpg,12,0,12,0,0,0,0,0,0,0,0,3,0,2,2,1,,,,,,,,,,,,1066.7720032999996,1067.6680466999996,0.8960434000000532,right,1,0.867250199999944,None,26,54:46,1,,,,,,,,,,,,,,,Tokka,2 - with skip,"54:46, 51:49","2.5s, 2.0s",2023-07-20_15h17.45.508,Rewa's Exp,2023.1.2,59.84981287949168,
2,Countdown_2s.mp4,"[-1.0, 1.0, -1.0]",red,left,Countdown_2s.jpg,12,0,12,0,0,0,0,0,0,0,0,3,0,3,3,3,,,,,,,,,,,,1071.5658258000003,1072.3187138000003,0.7528879999999845,left,1,0.7215929000003598,None,27,54:46,1,,,,,,,,,,,,,,,Tokka,2 - with skip,"54:46, 51:49","2.5s, 2.0s",2023-07-20_15h17.45.508,Rewa's Exp,2023.1.2,59.84981287949168,
2.5,Countdown_2.5s.mp4,"[-1.0, 1.0, -1.0]",red,left,Countdown_2.5s.jpg,12,0,12,0,0,0,0,0,0,0,0,3,1,0,4,2,,,,,,,,,,,,1076.2491573999996,1077.0345698,0.7854124000004958,left,1,0.7668641000000207,None,28,54:46,1,,,,,,,,,,,,,,,Tokka,2 - with skip,"54:46, 51:49","2.5s, 2.0s",2023-07-20_15h17.45.508,Rewa's Exp,2023.1.2,59.84981287949168,
2,Countdown_2s.mp4,red,"[-1.0, 1.0, -1.0]",right,Countdown_2s.jpg,12,0,12,0,0,0,0,0,0,0,0,3,1,1,5,1,,,,,,,,,,,,1080.9212177,1081.6845335999997,0.7633158999997249,right,1,0.7339859000003344,None,29,54:46,1,,,,,,,,,,,,,,,Tokka,2 - with skip,"54:46, 51:49","2.5s, 2.0s",2023-07-20_15h17.45.508,Rewa's Exp,2023.1.2,59.84981287949168,
2,Countdown_2s.mp4,"[-1.0, 1.0, -1.0]",red,left,Countdown_2s.jpg,12,0,12,0,0,0,0,0,0,0,0,3,1,2,6,3,,,,,,,,,,,,1085.6002282999998,1086.5519760999996,0.9517477999997936,None,0,,space,29,54:46,0,0.9190612000002147,,,,,,,,,,,,,,Tokka,2 - with skip,"54:46, 51:49","2.5s, 2.0s",2023-07-20_15h17.45.508,Rewa's Exp,2023.1.2,59.84981287949168,
2.5,Countdown_2.5s.mp4,red,"[-1.0, 1.0, -1.0]",right,Countdown_2.5s.jpg,12,0,12,0,0,0,0,0,0,0,0,3,1,3,7,0,,,,,,,,,,,,1090.4871986999997,1091.6011873999996,1.1139886999999362,right,1,1.0961570999998003,None,30,54:46,1,,,,,,,,,,,,,,,Tokka,2 - with skip,"54:46, 51:49","2.5s, 2.0s",2023-07-20_15h17.45.508,Rewa's Exp,2023.1.2,59.84981287949168,
2.5,Countdown_2.5s.mp4,"[-1.0, 1.0, -1.0]",red,left,Countdown_2.5s.jpg,12,0,12,0,0,0,0,0,0,0,0,3,,,,,0,0,0,2,,,,,,,,1095.5565293999998,1096.6178271999997,1.0612977999999202,,,,,31,51:49,1,,left,1,1.0441438999996535,None,,,,,,,,,,Tokka,2 - with skip,"54:46, 51:49","2.5s, 2.0s",2023-07-20_15h17.45.508,Rewa's Exp,2023.1.2,59.84981287949168,
2,Countdown_2s.mp4,red,"[-1.0, 1.0, -1.0]",right,Countdown_2s.jpg,12,0,12,0,0,0,0,0,0,0,0,3,,,,,0,1,1,1,,,,,,,,1100.527572,1101.4844762000002,0.956904200000281,,,,,31,51:49,0,,None,0,,space,0.9285068999997748,,,,,,,,,Tokka,2 - with skip,"54:46, 51:49","2.5s, 2.0s",2023-07-20_15h17.45.508,Rewa's Exp,2023.1.2,59.84981287949168,
2.5,Countdown_2.5s.mp4,red,"[-1.0, 1.0, -1.0]",right,Countdown_2.5s.jpg,12,0,12,0,0,0,0,0,0,0,0,3,,,,,0,2,2,0,,,,,,,,1105.4040446999998,1106.5011525,1.0971078000002308,,,,,31,51:49,0,,None,0,,space,1.0669752000003427,,,,,,,,,Tokka,2 - with skip,"54:46, 51:49","2.5s, 2.0s",2023-07-20_15h17.45.508,Rewa's Exp,2023.1.2,59.84981287949168,
2,Countdown_2s.mp4,"[-1.0, 1.0, -1.0]",red,left,Countdown_2s.jpg,12,0,12,0,0,0,0,0,0,0,0,3,,,,,0,3,3,3,,,,,,,,1110.4015915999998,1111.1677573999996,0.766165799999726,,,,,32,51:49,1,,left,1,0.7339096000005156,None,,,,,,,,,,Tokka,2 - with skip,"54:46, 51:49","2.5s, 2.0s",2023-07-20_15h17.45.508,Rewa's Exp,2023.1.2,59.84981287949168,
2,Countdown_2s.mp4,red,"[-1.0, 1.0, -1.0]",right,Countdown_2s.jpg,12,0,12,0,0,0,0,0,0,0,0,3,,,,,1,0,4,1,,,,,,,,1115.0654730999995,1116.0511053999999,0.9856323000003613,,,,,32,51:49,0,,None,0,,space,0.965883699999722,,,,,,,,,Tokka,2 - with skip,"54:46, 51:49","2.5s, 2.0s",2023-07-20_15h17.45.508,Rewa's Exp,2023.1.2,59.84981287949168,
2.5,Countdown_2.5s.mp4,"[-1.0, 1.0, -1.0]",red,left,Countdown_2.5s.jpg,12,0,12,0,0,0,0,0,0,0,0,3,,,,,1,1,5,2,,,,,,,,1119.9871309999999,1121.1847247999995,1.197593799999595,,,,,33,51:49,1,,left,1,1.1644525000001522,None,,,,,,,,,,Tokka,2 - with skip,"54:46, 51:49","2.5s, 2.0s",2023-07-20_15h17.45.508,Rewa's Exp,2023.1.2,59.84981287949168,
2,Countdown_2s.mp4,"[-1.0, 1.0, -1.0]",red,left,Countdown_2s.jpg,12,0,12,0,0,0,0,0,0,0,0,3,,,,,1,2,6,3,,,,,,,,1125.1039633999999,1126.2344559000003,1.1304925000004005,,,,,33,51:49,0,,None,0,,space,1.104492399999799,,,,,,,,,Tokka,2 - with skip,"54:46, 51:49","2.5s, 2.0s",2023-07-20_15h17.45.508,Rewa's Exp,2023.1.2,59.84981287949168,
2.5,Countdown_2.5s.mp4,red,"[-1.0, 1.0, -1.0]",right,Countdown_2.5s.jpg,12,0,12,0,0,0,0,0,0,0,0,3,,,,,1,3,7,0,,,,,,,,1130.1875078000003,1131.1846773999996,0.9971695999993244,,,,,34,51:49,1,,right,1,0.9647571999994398,None,,,,,,,,,,Tokka,2 - with skip,"54:46, 51:49","2.5s, 2.0s",2023-07-20_15h17.45.508,Rewa's Exp,2023.1.2,59.84981287949168,
2,Countdown_2s.mp4,"[-1.0, 1.0, -1.0]",red,left,Countdown_2s.jpg,12,0,12,0,0,0,0,0,0,0,0,3,,,,,,,,,,,,,,,,,,,,,,,,,,,,,,,,1137.7879113999998,1137.7879113999998,1137.7879113999998,1137.7879113999998,space,2.2389635999998063,,,Tokka,2 - with skip,"54:46, 51:49","2.5s, 2.0s",2023-07-20_15h17.45.508,Rewa's Exp,2023.1.2,59.84981287949168,
2.5,Countdown_2.5s.mp4,"[-1.0, 1.0, -1.0]",red,left,Countdown_2.5s.jpg,13,0,13,0,0,0,0,1,0,0,0,0,0,0,0,2,,,,,,,,,,,,1137.3881880999998,1138.2679939999998,0.8798059000000649,left,1,0.8602807999996003,None,35,54:46,1,,,,,,,,,,,,,,,Tokka,2 - with skip,"54:46, 51:49","2.5s, 2.0s",2023-07-20_15h17.45.508,Rewa's Exp,2023.1.2,59.84981287949168,
2,Countdown_2s.mp4,red,"[-1.0, 1.0, -1.0]",right,Countdown_2s.jpg,13,0,13,0,0,0,0,1,0,0,0,0,0,1,1,1,,,,,,,,,,,,1142.1930356000003,1142.9680239999998,0.7749883999995291,right,1,0.7517674000000625,None,36,54:46,1,,,,,,,,,,,,,,,Tokka,2 - with skip,"54:46, 51:49","2.5s, 2.0s",2023-07-20_15h17.45.508,Rewa's Exp,2023.1.2,59.84981287949168,
2.5,Countdown_2.5s.mp4,red,"[-1.0, 1.0, -1.0]",right,Countdown_2.5s.jpg,13,0,13,0,0,0,0,1,0,0,0,0,0,2,2,0,,,,,,,,,,,,1146.8775069000003,1147.6686143999996,0.7911074999992707,right,1,0.762489299999288,None,37,54:46,1,,,,,,,,,,,,,,,Tokka,2 - with skip,"54:46, 51:49","2.5s, 2.0s",2023-07-20_15h17.45.508,Rewa's Exp,2023.1.2,59.84981287949168,
2,Countdown_2s.mp4,"[-1.0, 1.0, -1.0]",red,left,Countdown_2s.jpg,13,0,13,0,0,0,0,1,0,0,0,0,0,3,3,3,,,,,,,,,,,,1151.6497442,1152.4512896999995,0.80154549999952,left,1,0.7825120999996216,None,38,54:46,1,,,,,,,,,,,,,,,Tokka,2 - with skip,"54:46, 51:49","2.5s, 2.0s",2023-07-20_15h17.45.508,Rewa's Exp,2023.1.2,59.84981287949168,
2,Countdown_2s.mp4,"[-1.0, 1.0, -1.0]",red,left,Countdown_2s.jpg,13,0,13,0,0,0,0,1,0,0,0,0,1,0,4,3,,,,,,,,,,,,1156.4054323,1157.4353959999999,1.0299636999998256,left,1,1.0107130999995206,None,39,54:46,1,,,,,,,,,,,,,,,Tokka,2 - with skip,"54:46, 51:49","2.5s, 2.0s",2023-07-20_15h17.45.508,Rewa's Exp,2023.1.2,59.84981287949168,
2,Countdown_2s.mp4,red,"[-1.0, 1.0, -1.0]",right,Countdown_2s.jpg,13,0,13,0,0,0,0,1,0,0,0,0,1,1,5,1,,,,,,,,,,,,1161.3606559999998,1162.2681753999996,0.9075193999997282,right,1,0.8800931999994646,None,40,54:46,1,,,,,,,,,,,,,,,Tokka,2 - with skip,"54:46, 51:49","2.5s, 2.0s",2023-07-20_15h17.45.508,Rewa's Exp,2023.1.2,59.84981287949168,
2.5,Countdown_2.5s.mp4,"[-1.0, 1.0, -1.0]",red,left,Countdown_2.5s.jpg,13,0,13,0,0,0,0,1,0,0,0,0,1,2,6,2,,,,,,,,,,,,1166.1604599000002,1167.3012141999998,1.1407542999995712,None,0,,space,40,54:46,0,1.11139970000022,,,,,,,,,,,,,,Tokka,2 - with skip,"54:46, 51:49","2.5s, 2.0s",2023-07-20_15h17.45.508,Rewa's Exp,2023.1.2,59.84981287949168,
2.5,Countdown_2.5s.mp4,red,"[-1.0, 1.0, -1.0]",right,Countdown_2.5s.jpg,13,0,13,0,0,0,0,1,0,0,0,0,1,3,7,0,,,,,,,,,,,,1171.2057712999995,1172.7846408999994,1.5788695999999618,None,0,,space,40,54:46,0,1.5533598000001803,,,,,,,,,,,,,,Tokka,2 - with skip,"54:46, 51:49","2.5s, 2.0s",2023-07-20_15h17.45.508,Rewa's Exp,2023.1.2,59.84981287949168,
2.5,Countdown_2.5s.mp4,"[-1.0, 1.0, -1.0]",red,left,Countdown_2.5s.jpg,13,0,13,0,0,0,0,1,0,0,0,0,,,,,0,0,0,2,,,,,,,,1176.7131274000003,1177.5853302999994,0.872202899999138,,,,,41,51:49,1,,left,1,0.8387775000001056,None,,,,,,,,,,Tokka,2 - with skip,"54:46, 51:49","2.5s, 2.0s",2023-07-20_15h17.45.508,Rewa's Exp,2023.1.2,59.84981287949168,
2,Countdown_2s.mp4,"[-1.0, 1.0, -1.0]",red,left,Countdown_2s.jpg,13,0,13,0,0,0,0,1,0,0,0,0,,,,,0,1,1,3,,,,,,,,1181.5099742000002,1182.7020937999996,1.192119599999387,,,,,42,51:49,1,,left,1,1.1613571999996566,None,,,,,,,,,,Tokka,2 - with skip,"54:46, 51:49","2.5s, 2.0s",2023-07-20_15h17.45.508,Rewa's Exp,2023.1.2,59.84981287949168,
2.5,Countdown_2.5s.mp4,red,"[-1.0, 1.0, -1.0]",right,Countdown_2.5s.jpg,13,0,13,0,0,0,0,1,0,0,0,0,,,,,0,2,2,0,,,,,,,,1186.6314206999996,1187.4345868,0.8031661000004533,,,,,43,51:49,1,,right,1,0.7778581000002305,None,,,,,,,,,,Tokka,2 - with skip,"54:46, 51:49","2.5s, 2.0s",2023-07-20_15h17.45.508,Rewa's Exp,2023.1.2,59.84981287949168,
2,Countdown_2s.mp4,red,"[-1.0, 1.0, -1.0]",right,Countdown_2s.jpg,13,0,13,0,0,0,0,1,0,0,0,0,,,,,0,3,3,1,,,,,,,,1191.3435387999998,1192.2346971999996,0.8911583999997674,,,,,41,51:49,-2,,left,0,0.8648530000000392,None,,,,,,,,,,Tokka,2 - with skip,"54:46, 51:49","2.5s, 2.0s",2023-07-20_15h17.45.508,Rewa's Exp,2023.1.2,59.84981287949168,
2.5,Countdown_2.5s.mp4,red,"[-1.0, 1.0, -1.0]",right,Countdown_2.5s.jpg,13,0,13,0,0,0,0,1,0,0,0,0,,,,,1,0,4,0,,,,,,,,1196.1798055,1197.2014631000002,1.0216576000002533,,,,,39,51:49,-2,,left,0,0.9963269999998374,None,,,,,,,,,,Tokka,2 - with skip,"54:46, 51:49","2.5s, 2.0s",2023-07-20_15h17.45.508,Rewa's Exp,2023.1.2,59.84981287949168,
2,Countdown_2s.mp4,red,"[-1.0, 1.0, -1.0]",right,Countdown_2s.jpg,13,0,13,0,0,0,0,1,0,0,0,0,,,,,1,1,5,1,,,,,,,,1201.0927677999998,1201.8680360999997,0.7752682999998797,,,,,40,51:49,1,,right,1,0.7560851999996885,None,,,,,,,,,,Tokka,2 - with skip,"54:46, 51:49","2.5s, 2.0s",2023-07-20_15h17.45.508,Rewa's Exp,2023.1.2,59.84981287949168,
2.5,Countdown_2.5s.mp4,"[-1.0, 1.0, -1.0]",red,left,Countdown_2.5s.jpg,13,0,13,0,0,0,0,1,0,0,0,0,,,,,1,2,6,2,,,,,,,,1205.7684447000001,1206.5681724999995,0.7997277999993457,,,,,41,51:49,1,,left,1,0.7751121000001149,None,,,,,,,,,,Tokka,2 - with skip,"54:46, 51:49","2.5s, 2.0s",2023-07-20_15h17.45.508,Rewa's Exp,2023.1.2,59.84981287949168,
2,Countdown_2s.mp4,"[-1.0, 1.0, -1.0]",red,left,Countdown_2s.jpg,13,0,13,0,0,0,0,1,0,0,0,0,,,,,1,3,7,3,,,,,,,,1210.4830087999999,1211.5183435999998,1.0353347999998732,,,,,42,51:49,1,,left,1,1.0125643999999738,None,,,,,,,,,,Tokka,2 - with skip,"54:46, 51:49","2.5s, 2.0s",2023-07-20_15h17.45.508,Rewa's Exp,2023.1.2,59.84981287949168,
2.5,Countdown_2.5s.mp4,red,"[-1.0, 1.0, -1.0]",right,Countdown_2.5s.jpg,13,0,13,0,0,0,0,1,0,0,0,0,,,,,,,,,,,,,,,,,,,,,,,,,,,,,,,,1218.1181129999995,1218.1181129999995,1218.1181129999995,1218.1181129999995,space,1.8125522999998793,,,Tokka,2 - with skip,"54:46, 51:49","2.5s, 2.0s",2023-07-20_15h17.45.508,Rewa's Exp,2023.1.2,59.84981287949168,
2,Countdown_2s.mp4,"[-1.0, 1.0, -1.0]",red,left,Countdown_2s.jpg,14,0,14,0,0,0,0,2,0,0,0,3,0,0,0,3,,,,,,,,,,,,1217.2833677999997,1218.0017204999995,0.7183526999997412,left,1,0.7011296000000584,None,43,54:46,1,,,,,,,,,,,,,,,Tokka,2 - with skip,"54:46, 51:49","2.5s, 2.0s",2023-07-20_15h17.45.508,Rewa's Exp,2023.1.2,59.84981287949168,
2,Countdown_2s.mp4,red,"[-1.0, 1.0, -1.0]",right,Countdown_2s.jpg,14,0,14,0,0,0,0,2,0,0,0,3,0,1,1,1,,,,,,,,,,,,1221.9300051999999,1222.7015430000001,0.7715378000002602,right,1,0.7413683000004312,None,44,54:46,1,,,,,,,,,,,,,,,Tokka,2 - with skip,"54:46, 51:49","2.5s, 2.0s",2023-07-20_15h17.45.508,Rewa's Exp,2023.1.2,59.84981287949168,
2.5,Countdown_2.5s.mp4,"[-1.0, 1.0, -1.0]",red,left,Countdown_2.5s.jpg,14,0,14,0,0,0,0,2,0,0,0,3,0,2,2,2,,,,,,,,,,,,1226.6478603999994,1227.4681971999998,0.8203368000004048,left,1,0.7927141999998639,None,45,54:46,1,,,,,,,,,,,,,,,Tokka,2 - with skip,"54:46, 51:49","2.5s, 2.0s",2023-07-20_15h17.45.508,Rewa's Exp,2023.1.2,59.84981287949168,
2.5,Countdown_2.5s.mp4,red,"[-1.0, 1.0, -1.0]",right,Countdown_2.5s.jpg,14,0,14,0,0,0,0,2,0,0,0,3,0,3,3,0,,,,,,,,,,,,1231.3706045,1232.3848257,1.0142212000000654,right,1,0.9976104999996096,None,46,54:46,1,,,,,,,,,,,,,,,Tokka,2 - with skip,"54:46, 51:49","2.5s, 2.0s",2023-07-20_15h17.45.508,Rewa's Exp,2023.1.2,59.84981287949168,
2,Countdown_2s.mp4,red,"[-1.0, 1.0, -1.0]",right,Countdown_2s.jpg,14,0,14,0,0,0,0,2,0,0,0,3,1,0,4,1,,,,,,,,,,,,1236.2928375000001,1237.2182149,0.9253773999998884,right,1,0.8995199999999386,None,47,54:46,1,,,,,,,,,,,,,,,Tokka,2 - with skip,"54:46, 51:49","2.5s, 2.0s",2023-07-20_15h17.45.508,Rewa's Exp,2023.1.2,59.84981287949168,
2.5,Countdown_2.5s.mp4,"[-1.0, 1.0, -1.0]",red,left,Countdown_2.5s.jpg,14,0,14,0,0,0,0,2,0,0,0,3,1,1,5,2,,,,,,,,,,,,1241.1263441,1241.9849400000003,0.8585959000001822,left,1,0.8261349999993399,None,48,54:46,1,,,,,,,,,,,,,,,Tokka,2 - with skip,"54:46, 51:49","2.5s, 2.0s",2023-07-20_15h17.45.508,Rewa's Exp,2023.1.2,59.84981287949168,
2.5,Countdown_2.5s.mp4,red,"[-1.0, 1.0, -1.0]",right,Countdown_2.5s.jpg,14,0,14,0,0,0,0,2,0,0,0,3,1,2,6,0,,,,,,,,,,,,1245.8712009,1246.9680427000003,1.0968418000002202,None,0,,space,48,54:46,0,1.0718862000003355,,,,,,,,,,,,,,Tokka,2 - with skip,"54:46, 51:49","2.5s, 2.0s",2023-07-20_15h17.45.508,Rewa's Exp,2023.1.2,59.84981287949168,
2,Countdown_2s.mp4,"[-1.0, 1.0, -1.0]",red,left,Countdown_2s.jpg,14,0,14,0,0,0,0,2,0,0,0,3,1,3,7,3,,,,,,,,,,,,1250.8710708999997,1251.5850384999994,0.7139675999997053,left,1,0.6893811999998434,None,49,54:46,1,,,,,,,,,,,,,,,Tokka,2 - with skip,"54:46, 51:49","2.5s, 2.0s",2023-07-20_15h17.45.508,Rewa's Exp,2023.1.2,59.84981287949168,
2,Countdown_2s.mp4,red,"[-1.0, 1.0, -1.0]",right,Countdown_2s.jpg,14,0,14,0,0,0,0,2,0,0,0,3,,,,,0,0,0,1,,,,,,,,1255.5403356999996,1256.4681960999997,0.9278604000000996,,,,,49,51:49,0,,None,0,,space,0.8988412999997308,,,,,,,,,Tokka,2 - with skip,"54:46, 51:49","2.5s, 2.0s",2023-07-20_15h17.45.508,Rewa's Exp,2023.1.2,59.84981287949168,
2.5,Countdown_2.5s.mp4,"[-1.0, 1.0, -1.0]",red,left,Countdown_2.5s.jpg,14,0,14,0,0,0,0,2,0,0,0,3,,,,,0,1,1,2,,,,,,,,1260.3823874999998,1261.2013912000002,0.819003700000394,,,,,50,51:49,1,,left,1,0.7865677999998297,None,,,,,,,,,,Tokka,2 - with skip,"54:46, 51:49","2.5s, 2.0s",2023-07-20_15h17.45.508,Rewa's Exp,2023.1.2,59.84981287949168,
2,Countdown_2s.mp4,"[-1.0, 1.0, -1.0]",red,left,Countdown_2s.jpg,14,0,14,0,0,0,0,2,0,0,0,3,,,,,0,2,2,3,,,,,,,,1265.1089784999995,1265.6846980999999,0.5757196000004114,,,,,48,51:49,-2,,right,0,0.5462899000003745,None,,,,,,,,,,Tokka,2 - with skip,"54:46, 51:49","2.5s, 2.0s",2023-07-20_15h17.45.508,Rewa's Exp,2023.1.2,59.84981287949168,
2.5,Countdown_2.5s.mp4,red,"[-1.0, 1.0, -1.0]",right,Countdown_2.5s.jpg,14,0,14,0,0,0,0,2,0,0,0,3,,,,,0,3,3,0,,,,,,,,1269.5726472999995,1270.8856249,1.3129776000005222,,,,,49,51:49,1,,right,1,1.2829320999999254,None,,,,,,,,,,Tokka,2 - with skip,"54:46, 51:49","2.5s, 2.0s",2023-07-20_15h17.45.508,Rewa's Exp,2023.1.2,59.84981287949168,
2.5,Countdown_2.5s.mp4,red,"[-1.0, 1.0, -1.0]",right,Countdown_2.5s.jpg,14,0,14,0,0,0,0,2,0,0,0,3,,,,,1,0,4,0,,,,,,,,1274.8156159,1275.7688438999994,0.9532279999993989,,,,,47,51:49,-2,,left,0,0.9288205000002563,None,,,,,,,,,,Tokka,2 - with skip,"54:46, 51:49","2.5s, 2.0s",2023-07-20_15h17.45.508,Rewa's Exp,2023.1.2,59.84981287949168,
2,Countdown_2s.mp4,"[-1.0, 1.0, -1.0]",red,left,Countdown_2s.jpg,14,0,14,0,0,0,0,2,0,0,0,3,,,,,1,1,5,3,,,,,,,,1279.7208820999995,1280.4848729999994,0.7639908999999534,,,,,48,51:49,1,,left,1,0.7350859999996828,None,,,,,,,,,,Tokka,2 - with skip,"54:46, 51:49","2.5s, 2.0s",2023-07-20_15h17.45.508,Rewa's Exp,2023.1.2,59.84981287949168,
2.5,Countdown_2.5s.mp4,"[-1.0, 1.0, -1.0]",red,left,Countdown_2.5s.jpg,14,0,14,0,0,0,0,2,0,0,0,3,,,,,1,2,6,2,,,,,,,,1284.3991262999998,1285.1182112999995,0.7190849999997226,,,,,49,51:49,1,,left,1,0.6883402000003116,None,,,,,,,,,,Tokka,2 - with skip,"54:46, 51:49","2.5s, 2.0s",2023-07-20_15h17.45.508,Rewa's Exp,2023.1.2,59.84981287949168,
2,Countdown_2s.mp4,red,"[-1.0, 1.0, -1.0]",right,Countdown_2s.jpg,14,0,14,0,0,0,0,2,0,0,0,3,,,,,1,3,7,1,,,,,,,,1289.0283649000003,1290.0515421,1.0231771999997363,,,,,50,51:49,1,,right,1,1.0042012000003524,None,,,,,,,,,,Tokka,2 - with skip,"54:46, 51:49","2.5s, 2.0s",2023-07-20_15h17.45.508,Rewa's Exp,2023.1.2,59.84981287949168,
2,Countdown_2s.mp4,"[-1.0, 1.0, -1.0]",red,left,Countdown_2s.jpg,14,0,14,0,0,0,0,2,0,0,0,3,,,,,,,,,,,,,,,,,,,,,,,,,,,,,,,,1296.6379168000003,1296.6379168000003,1296.6379168000003,1296.6379168000003,space,1.9495672999992166,,,Tokka,2 - with skip,"54:46, 51:49","2.5s, 2.0s",2023-07-20_15h17.45.508,Rewa's Exp,2023.1.2,59.84981287949168,
,,,,,,,,,,,,,,,,,,,,,,,,,,,,,,,,,,,,,,,,,,,,,,,,,,,,,,,1298.6130861000001,1303.6125917,,,,,,,,,
