Duration,Countdown,color1,color2,correct,screenshot,trials.thisRepN,trials.thisTrialN,trials.thisN,trials.thisIndex,trials_6040.thisRepN,trials_6040.thisTrialN,trials_6040.thisN,trials_6040.thisIndex,trials_5743.thisRepN,trials_5743.thisTrialN,trials_5743.thisN,trials_5743.thisIndex,trials_5446.thisRepN,trials_5446.thisTrialN,trials_5446.thisN,trials_5446.thisIndex,trials_5149.thisRepN,trials_5149.thisTrialN,trials_5149.thisN,trials_5149.thisIndex,key_resp_4.started,key_resp_4.keys,key_resp_4.rt,key_resp_2.started,key_resp_2.keys,key_resp_2.rt,key_resp_3.keys,Videoshowstart,Videoshowstop,VideoshowRT,response_3.keys,response_3.corr,response_3.rt,key_skip_3.keys,total_score,Dot_ratio,current_score,response_4.keys,response_4.corr,response_4.rt,key_skip_4.keys,text_2.started,text_5.started,key_resp.started,text_9.started,key_resp.keys,key_resp.rt,text_10.started,text_10.stopped,participant,Task,Dot Ratio,Deadline,date,expName,psychopyVersion,frameRate,
,,,,,,,,,,,,,,,,,,,,,,,,,,18.319694100000106,space,1.8515028999995593,,,,,,,,,,,,,,,,,,,,,,,,,,,Tokka,1 - without skip,"54:46, 51:49","2.5s, 2.0s",2023-07-20_14h33.55.870,Rewa's Exp,2023.1.2,59.99692815724245,
,,,,,,,,,,,,,,,,,,,,,,,,,,,,,20.200327800000196,space,0.7640984999998182,,,,,,,,,,,,,,,,,,,,,,,,Tokka,1 - without skip,"54:46, 51:49","2.5s, 2.0s",2023-07-20_14h33.55.870,Rewa's Exp,2023.1.2,59.99692815724245,
,,,,,,,,,,,,,,,,,,,,,,,,,,,,,,,,None,,,,,,,,,,,,,,,,,,,,,,,Tokka,1 - without skip,"54:46, 51:49","2.5s, 2.0s",2023-07-20_14h33.55.870,Rewa's Exp,2023.1.2,59.99692815724245,
2,Countdown_2s.mp4,red,"[-1.0, 1.0, -1.0]",right,Countdown_2s.jpg,0,0,0,0,0,0,0,2,0,0,0,1,0,0,0,1,,,,,,,,,,,,18.38594319999993,19.8369431000001,1.4509999000001699,right,1,1.4222838999999112,None,1,54:46,1,,,,,,,,,,,,,Tokka,1 - without skip,"54:46, 51:49","2.5s, 2.0s",2023-07-20_14h33.55.870,Rewa's Exp,2023.1.2,59.99692815724245,
2,Countdown_2s.mp4,"[-1.0, 1.0, -1.0]",red,left,Countdown_2s.jpg,0,0,0,0,0,0,0,2,0,0,0,1,0,1,1,3,,,,,,,,,,,,23.754545100000087,24.587119599999824,0.8325744999997369,left,1,0.8159252000000379,None,2,54:46,1,,,,,,,,,,,,,Tokka,1 - without skip,"54:46, 51:49","2.5s, 2.0s",2023-07-20_14h33.55.870,Rewa's Exp,2023.1.2,59.99692815724245,
2.5,Countdown_2.5s.mp4,red,"[-1.0, 1.0, -1.0]",right,Countdown_2.5s.jpg,0,0,0,0,0,0,0,2,0,0,0,1,0,2,2,0,,,,,,,,,,,,28.541651999999885,29.38759949999985,0.8459474999999657,right,1,0.8202583999996023,None,3,54:46,1,,,,,,,,,,,,,Tokka,1 - without skip,"54:46, 51:49","2.5s, 2.0s",2023-07-20_14h33.55.870,Rewa's Exp,2023.1.2,59.99692815724245,
2.5,Countdown_2.5s.mp4,"[-1.0, 1.0, -1.0]",red,left,Countdown_2.5s.jpg,0,0,0,0,0,0,0,2,0,0,0,1,0,3,3,2,,,,,,,,,,,,33.31356719999985,34.38813190000019,1.0745647000003373,left,1,1.0547515999996904,None,4,54:46,1,,,,,,,,,,,,,Tokka,1 - without skip,"54:46, 51:49","2.5s, 2.0s",2023-07-20_14h33.55.870,Rewa's Exp,2023.1.2,59.99692815724245,
2,Countdown_2s.mp4,red,"[-1.0, 1.0, -1.0]",right,Countdown_2s.jpg,0,0,0,0,0,0,0,2,0,0,0,1,1,0,4,1,,,,,,,,,,,,38.372625999999855,39.52044840000008,1.1478224000002228,right,1,1.115519200000108,None,5,54:46,1,,,,,,,,,,,,,Tokka,1 - without skip,"54:46, 51:49","2.5s, 2.0s",2023-07-20_14h33.55.870,Rewa's Exp,2023.1.2,59.99692815724245,
2.5,Countdown_2.5s.mp4,red,"[-1.0, 1.0, -1.0]",right,Countdown_2.5s.jpg,0,0,0,0,0,0,0,2,0,0,0,1,1,1,5,0,,,,,,,,,,,,43.46571989999984,44.53740700000026,1.0716871000004176,right,1,1.039364299999761,None,6,54:46,1,,,,,,,,,,,,,Tokka,1 - without skip,"54:46, 51:49","2.5s, 2.0s",2023-07-20_14h33.55.870,Rewa's Exp,2023.1.2,59.99692815724245,
2.5,Countdown_2.5s.mp4,"[-1.0, 1.0, -1.0]",red,left,Countdown_2.5s.jpg,0,0,0,0,0,0,0,2,0,0,0,1,1,2,6,2,,,,,,,,,,,,48.50990970000021,49.40462840000009,0.8947186999998848,left,1,0.8682307999997647,None,7,54:46,1,,,,,,,,,,,,,Tokka,1 - without skip,"54:46, 51:49","2.5s, 2.0s",2023-07-20_14h33.55.870,Rewa's Exp,2023.1.2,59.99692815724245,
2,Countdown_2s.mp4,"[-1.0, 1.0, -1.0]",red,left,Countdown_2s.jpg,0,0,0,0,0,0,0,2,0,0,0,1,1,3,7,3,,,,,,,,,,,,53.308839400000124,53.95373590000008,0.6448964999999589,right,0,0.6203310000000783,None,5,54:46,-2,,,,,,,,,,,,,Tokka,1 - without skip,"54:46, 51:49","2.5s, 2.0s",2023-07-20_14h33.55.870,Rewa's Exp,2023.1.2,59.99692815724245,
2.5,Countdown_2.5s.mp4,red,"[-1.0, 1.0, -1.0]",right,Countdown_2.5s.jpg,0,0,0,0,0,0,0,2,0,0,0,1,,,,,0,0,0,0,,,,,,,,57.69858400000021,58.653745900000104,0.9551618999998936,,,,,3,51:49,-2,left,0,0.9254604999996445,None,,,,,,,,,Tokka,1 - without skip,"54:46, 51:49","2.5s, 2.0s",2023-07-20_14h33.55.870,Rewa's Exp,2023.1.2,59.99692815724245,
2,Countdown_2s.mp4,"[-1.0, 1.0, -1.0]",red,left,Countdown_2s.jpg,0,0,0,0,0,0,0,2,0,0,0,1,,,,,0,1,1,3,,,,,,,,62.579656400000204,63.58700140000019,1.0073449999999866,,,,,1,51:49,-2,right,0,0.9899606999997559,None,,,,,,,,,Tokka,1 - without skip,"54:46, 51:49","2.5s, 2.0s",2023-07-20_14h33.55.870,Rewa's Exp,2023.1.2,59.99692815724245,
2,Countdown_2s.mp4,red,"[-1.0, 1.0, -1.0]",right,Countdown_2s.jpg,0,0,0,0,0,0,0,2,0,0,0,1,,,,,0,2,2,1,,,,,,,,67.54260449999992,68.63711400000011,1.0945095000001857,,,,,-1,51:49,-2,left,0,1.0741852999999537,None,,,,,,,,,Tokka,1 - without skip,"54:46, 51:49","2.5s, 2.0s",2023-07-20_14h33.55.870,Rewa's Exp,2023.1.2,59.99692815724245,
2.5,Countdown_2.5s.mp4,"[-1.0, 1.0, -1.0]",red,left,Countdown_2.5s.jpg,0,0,0,0,0,0,0,2,0,0,0,1,,,,,0,3,3,2,,,,,,,,72.58445110000002,73.92031390000011,1.3358628000000863,,,,,-3,51:49,-2,right,0,1.3117073999997046,None,,,,,,,,,Tokka,1 - without skip,"54:46, 51:49","2.5s, 2.0s",2023-07-20_14h33.55.870,Rewa's Exp,2023.1.2,59.99692815724245,
2,Countdown_2s.mp4,red,"[-1.0, 1.0, -1.0]",right,Countdown_2s.jpg,0,0,0,0,0,0,0,2,0,0,0,1,,,,,1,0,4,1,,,,,,,,77.83845120000024,78.52044000000024,0.6819887999999992,,,,,-2,51:49,1,right,1,0.6498486999998931,None,,,,,,,,,Tokka,1 - without skip,"54:46, 51:49","2.5s, 2.0s",2023-07-20_14h33.55.870,Rewa's Exp,2023.1.2,59.99692815724245,
2.5,Countdown_2.5s.mp4,"[-1.0, 1.0, -1.0]",red,left,Countdown_2.5s.jpg,0,0,0,0,0,0,0,2,0,0,0,1,,,,,1,1,5,2,,,,,,,,82.44217979999985,84.05386309999994,1.6116833000000952,,,,,-1,51:49,1,left,1,1.582307199999832,None,,,,,,,,,Tokka,1 - without skip,"54:46, 51:49","2.5s, 2.0s",2023-07-20_14h33.55.870,Rewa's Exp,2023.1.2,59.99692815724245,
2,Countdown_2s.mp4,"[-1.0, 1.0, -1.0]",red,left,Countdown_2s.jpg,0,0,0,0,0,0,0,2,0,0,0,1,,,,,1,2,6,3,,,,,,,,87.99557619999996,88.88695749999988,0.8913812999999209,,,,,-3,51:49,-2,right,0,0.8708431999998538,None,,,,,,,,,Tokka,1 - without skip,"54:46, 51:49","2.5s, 2.0s",2023-07-20_14h33.55.870,Rewa's Exp,2023.1.2,59.99692815724245,
2.5,Countdown_2.5s.mp4,red,"[-1.0, 1.0, -1.0]",right,Countdown_2.5s.jpg,0,0,0,0,0,0,0,2,0,0,0,1,,,,,1,3,7,0,,,,,,,,92.84106789999987,93.9370514000002,1.0959835000003295,,,,,-5,51:49,-2,left,0,1.0715370000002622,None,,,,,,,,,Tokka,1 - without skip,"54:46, 51:49","2.5s, 2.0s",2023-07-20_14h33.55.870,Rewa's Exp,2023.1.2,59.99692815724245,
2,Countdown_2s.mp4,red,"[-1.0, 1.0, -1.0]",right,Countdown_2s.jpg,0,0,0,0,0,0,0,2,0,0,0,1,,,,,,,,,,,,,,,,,,,,,,,,,,,,,,100.2999049,100.2999049,100.2999049,100.2999049,space,1.919319600000108,,,Tokka,1 - without skip,"54:46, 51:49","2.5s, 2.0s",2023-07-20_14h33.55.870,Rewa's Exp,2023.1.2,59.99692815724245,
2.5,Countdown_2.5s.mp4,"[-1.0, 1.0, -1.0]",red,left,Countdown_2.5s.jpg,1,0,1,0,0,0,0,0,0,0,0,2,0,0,0,2,,,,,,,,,,,,99.81169809999983,100.92075549999981,1.1090573999999833,left,1,1.0852458999997907,None,-4,54:46,1,,,,,,,,,,,,,Tokka,1 - without skip,"54:46, 51:49","2.5s, 2.0s",2023-07-20_14h33.55.870,Rewa's Exp,2023.1.2,59.99692815724245,
2,Countdown_2s.mp4,"[-1.0, 1.0, -1.0]",red,left,Countdown_2s.jpg,1,0,1,0,0,0,0,0,0,0,0,2,0,1,1,3,,,,,,,,,,,,104.85877459999983,105.70363799999996,0.8448634000001221,left,1,0.8139127999997982,None,-3,54:46,1,,,,,,,,,,,,,Tokka,1 - without skip,"54:46, 51:49","2.5s, 2.0s",2023-07-20_14h33.55.870,Rewa's Exp,2023.1.2,59.99692815724245,
2,Countdown_2s.mp4,red,"[-1.0, 1.0, -1.0]",right,Countdown_2s.jpg,1,0,1,0,0,0,0,0,0,0,0,2,0,2,2,1,,,,,,,,,,,,109.62669090000009,110.77042740000024,1.1437365000001591,right,1,1.1172754999997778,None,-2,54:46,1,,,,,,,,,,,,,Tokka,1 - without skip,"54:46, 51:49","2.5s, 2.0s",2023-07-20_14h33.55.870,Rewa's Exp,2023.1.2,59.99692815724245,
2.5,Countdown_2.5s.mp4,red,"[-1.0, 1.0, -1.0]",right,Countdown_2.5s.jpg,1,0,1,0,0,0,0,0,0,0,0,2,0,3,3,0,,,,,,,,,,,,114.68334090000008,115.50400279999985,0.8206618999997772,right,1,0.7978017999998883,None,-1,54:46,1,,,,,,,,,,,,,Tokka,1 - without skip,"54:46, 51:49","2.5s, 2.0s",2023-07-20_14h33.55.870,Rewa's Exp,2023.1.2,59.99692815724245,
2.5,Countdown_2.5s.mp4,red,"[-1.0, 1.0, -1.0]",right,Countdown_2.5s.jpg,1,0,1,0,0,0,0,0,0,0,0,2,1,0,4,0,,,,,,,,,,,,119.4150724000001,120.23728110000002,0.8222086999999192,right,1,0.801905099999658,None,0,54:46,1,,,,,,,,,,,,,Tokka,1 - without skip,"54:46, 51:49","2.5s, 2.0s",2023-07-20_14h33.55.870,Rewa's Exp,2023.1.2,59.99692815724245,
2.5,Countdown_2.5s.mp4,"[-1.0, 1.0, -1.0]",red,left,Countdown_2.5s.jpg,1,0,1,0,0,0,0,0,0,0,0,2,1,1,5,2,,,,,,,,,,,,124.14187029999994,124.92064690000007,0.7787766000001284,left,1,0.7466068999997333,None,1,54:46,1,,,,,,,,,,,,,Tokka,1 - without skip,"54:46, 51:49","2.5s, 2.0s",2023-07-20_14h33.55.870,Rewa's Exp,2023.1.2,59.99692815724245,
2,Countdown_2s.mp4,"[-1.0, 1.0, -1.0]",red,left,Countdown_2s.jpg,1,0,1,0,0,0,0,0,0,0,0,2,1,2,6,3,,,,,,,,,,,,128.82866019999983,129.9375,1.108839800000169,left,1,1.076205999999729,None,2,54:46,1,,,,,,,,,,,,,Tokka,1 - without skip,"54:46, 51:49","2.5s, 2.0s",2023-07-20_14h33.55.870,Rewa's Exp,2023.1.2,59.99692815724245,
2,Countdown_2s.mp4,red,"[-1.0, 1.0, -1.0]",right,Countdown_2s.jpg,1,0,1,0,0,0,0,0,0,0,0,2,1,3,7,1,,,,,,,,,,,,133.8616674,135.0705557000001,1.208888300000126,right,1,1.1885800000000017,None,3,54:46,1,,,,,,,,,,,,,Tokka,1 - without skip,"54:46, 51:49","2.5s, 2.0s",2023-07-20_14h33.55.870,Rewa's Exp,2023.1.2,59.99692815724245,
2,Countdown_2s.mp4,red,"[-1.0, 1.0, -1.0]",right,Countdown_2s.jpg,1,0,1,0,0,0,0,0,0,0,0,2,,,,,0,0,0,1,,,,,,,,139.01561919999995,139.7536728,0.7380536000000575,,,,,4,51:49,1,right,1,0.7209459999999126,None,,,,,,,,,Tokka,1 - without skip,"54:46, 51:49","2.5s, 2.0s",2023-07-20_14h33.55.870,Rewa's Exp,2023.1.2,59.99692815724245,
2.5,Countdown_2.5s.mp4,red,"[-1.0, 1.0, -1.0]",right,Countdown_2.5s.jpg,1,0,1,0,0,0,0,0,0,0,0,2,,,,,0,1,1,0,,,,,,,,143.65079890000015,144.68874950000009,1.037950599999931,,,,,5,51:49,1,right,1,0.9986322999998265,None,,,,,,,,,Tokka,1 - without skip,"54:46, 51:49","2.5s, 2.0s",2023-07-20_14h33.55.870,Rewa's Exp,2023.1.2,59.99692815724245,
2.5,Countdown_2.5s.mp4,"[-1.0, 1.0, -1.0]",red,left,Countdown_2.5s.jpg,1,0,1,0,0,0,0,0,0,0,0,2,,,,,0,2,2,2,,,,,,,,148.63814989999992,149.83721809999997,1.199068200000056,,,,,6,51:49,1,left,1,1.1798263000000588,None,,,,,,,,,Tokka,1 - without skip,"54:46, 51:49","2.5s, 2.0s",2023-07-20_14h33.55.870,Rewa's Exp,2023.1.2,59.99692815724245,
2,Countdown_2s.mp4,"[-1.0, 1.0, -1.0]",red,left,Countdown_2s.jpg,1,0,1,0,0,0,0,0,0,0,0,2,,,,,0,3,3,3,,,,,,,,153.75726480000003,154.72037189999992,0.9631070999998883,,,,,4,51:49,-2,right,0,0.9401295000002392,None,,,,,,,,,Tokka,1 - without skip,"54:46, 51:49","2.5s, 2.0s",2023-07-20_14h33.55.870,Rewa's Exp,2023.1.2,59.99692815724245,
2,Countdown_2s.mp4,red,"[-1.0, 1.0, -1.0]",right,Countdown_2s.jpg,1,0,1,0,0,0,0,0,0,0,0,2,,,,,1,0,4,1,,,,,,,,158.63139090000004,159.63751230000025,1.006121400000211,,,,,5,51:49,1,right,1,0.976740399999926,None,,,,,,,,,Tokka,1 - without skip,"54:46, 51:49","2.5s, 2.0s",2023-07-20_14h33.55.870,Rewa's Exp,2023.1.2,59.99692815724245,
2,Countdown_2s.mp4,"[-1.0, 1.0, -1.0]",red,left,Countdown_2s.jpg,1,0,1,0,0,0,0,0,0,0,0,2,,,,,1,1,5,3,,,,,,,,163.55584309999995,164.4039797999999,0.8481366999999409,,,,,6,51:49,1,left,1,0.8303969999997207,None,,,,,,,,,Tokka,1 - without skip,"54:46, 51:49","2.5s, 2.0s",2023-07-20_14h33.55.870,Rewa's Exp,2023.1.2,59.99692815724245,
2.5,Countdown_2.5s.mp4,"[-1.0, 1.0, -1.0]",red,left,Countdown_2.5s.jpg,1,0,1,0,0,0,0,0,0,0,0,2,,,,,1,2,6,2,,,,,,,,168.34601220000013,169.32058259999985,0.9745703999997204,,,,,7,51:49,1,left,1,0.9507238999995025,None,,,,,,,,,Tokka,1 - without skip,"54:46, 51:49","2.5s, 2.0s",2023-07-20_14h33.55.870,Rewa's Exp,2023.1.2,59.99692815724245,
2.5,Countdown_2.5s.mp4,red,"[-1.0, 1.0, -1.0]",right,Countdown_2.5s.jpg,1,0,1,0,0,0,0,0,0,0,0,2,,,,,1,3,7,0,,,,,,,,173.26113239999995,174.22057840000025,0.9594460000002982,,,,,8,51:49,1,right,1,0.940357099999801,None,,,,,,,,,Tokka,1 - without skip,"54:46, 51:49","2.5s, 2.0s",2023-07-20_14h33.55.870,Rewa's Exp,2023.1.2,59.99692815724245,
2.5,Countdown_2.5s.mp4,"[-1.0, 1.0, -1.0]",red,left,Countdown_2.5s.jpg,1,0,1,0,0,0,0,0,0,0,0,2,,,,,,,,,,,,,,,,,,,,,,,,,,,,,,180.60003760000018,180.60003760000018,180.60003760000018,180.60003760000018,space,1.8680441000001338,,,Tokka,1 - without skip,"54:46, 51:49","2.5s, 2.0s",2023-07-20_14h33.55.870,Rewa's Exp,2023.1.2,59.99692815724245,
2.5,Countdown_2.5s.mp4,"[-1.0, 1.0, -1.0]",red,left,Countdown_2.5s.jpg,2,0,2,0,0,0,0,0,0,0,0,1,0,0,0,2,,,,,,,,,,,,180.06450769999992,180.9044047000002,0.8398970000002919,left,1,0.8161755999999514,None,9,54:46,1,,,,,,,,,,,,,Tokka,1 - without skip,"54:46, 51:49","2.5s, 2.0s",2023-07-20_14h33.55.870,Rewa's Exp,2023.1.2,59.99692815724245,
2.5,Countdown_2.5s.mp4,red,"[-1.0, 1.0, -1.0]",right,Countdown_2.5s.jpg,2,0,2,0,0,0,0,0,0,0,0,1,0,1,1,0,,,,,,,,,,,,184.82530429999997,185.63750609999988,0.8122017999999116,right,1,0.7919965000000957,None,10,54:46,1,,,,,,,,,,,,,Tokka,1 - without skip,"54:46, 51:49","2.5s, 2.0s",2023-07-20_14h33.55.870,Rewa's Exp,2023.1.2,59.99692815724245,
2,Countdown_2s.mp4,red,"[-1.0, 1.0, -1.0]",right,Countdown_2s.jpg,2,0,2,0,0,0,0,0,0,0,0,1,0,2,2,1,,,,,,,,,,,,189.58011979999992,190.5541545000001,0.9740347000001748,left,0,0.9416648999995232,None,8,54:46,-2,,,,,,,,,,,,,Tokka,1 - without skip,"54:46, 51:49","2.5s, 2.0s",2023-07-20_14h33.55.870,Rewa's Exp,2023.1.2,59.99692815724245,
2,Countdown_2s.mp4,"[-1.0, 1.0, -1.0]",red,left,Countdown_2s.jpg,2,0,2,0,0,0,0,0,0,0,0,1,0,3,3,3,,,,,,,,,,,,194.47327369999994,195.38763800000015,0.9143643000002157,left,1,0.8966481999996176,None,9,54:46,1,,,,,,,,,,,,,Tokka,1 - without skip,"54:46, 51:49","2.5s, 2.0s",2023-07-20_14h33.55.870,Rewa's Exp,2023.1.2,59.99692815724245,
2,Countdown_2s.mp4,red,"[-1.0, 1.0, -1.0]",right,Countdown_2s.jpg,2,0,2,0,0,0,0,0,0,0,0,1,1,0,4,1,,,,,,,,,,,,199.35367369999994,200.07081030000018,0.7171366000002308,right,1,0.6951086999997642,None,10,54:46,1,,,,,,,,,,,,,Tokka,1 - without skip,"54:46, 51:49","2.5s, 2.0s",2023-07-20_14h33.55.870,Rewa's Exp,2023.1.2,59.99692815724245,
2.5,Countdown_2.5s.mp4,red,"[-1.0, 1.0, -1.0]",right,Countdown_2.5s.jpg,2,0,2,0,0,0,0,0,0,0,0,1,1,1,5,0,,,,,,,,,,,,203.99069580000014,205.00391209999998,1.01321629999984,right,1,0.99515109999993,None,11,54:46,1,,,,,,,,,,,,,Tokka,1 - without skip,"54:46, 51:49","2.5s, 2.0s",2023-07-20_14h33.55.870,Rewa's Exp,2023.1.2,59.99692815724245,
2.5,Countdown_2.5s.mp4,"[-1.0, 1.0, -1.0]",red,left,Countdown_2.5s.jpg,2,0,2,0,0,0,0,0,0,0,0,1,1,2,6,2,,,,,,,,,,,,208.91509910000013,209.63821659999985,0.7231174999997165,left,1,0.6938457999999628,None,12,54:46,1,,,,,,,,,,,,,Tokka,1 - without skip,"54:46, 51:49","2.5s, 2.0s",2023-07-20_14h33.55.870,Rewa's Exp,2023.1.2,59.99692815724245,
2,Countdown_2s.mp4,"[-1.0, 1.0, -1.0]",red,left,Countdown_2s.jpg,2,0,2,0,0,0,0,0,0,0,0,1,1,3,7,3,,,,,,,,,,,,213.55392789999996,214.58781369999997,1.0338858000000073,left,1,1.014827499999683,None,13,54:46,1,,,,,,,,,,,,,Tokka,1 - without skip,"54:46, 51:49","2.5s, 2.0s",2023-07-20_14h33.55.870,Rewa's Exp,2023.1.2,59.99692815724245,
2.5,Countdown_2.5s.mp4,red,"[-1.0, 1.0, -1.0]",right,Countdown_2.5s.jpg,2,0,2,0,0,0,0,0,0,0,0,1,,,,,0,0,0,0,,,,,,,,218.55417320000015,219.25390789999983,0.6997346999996807,,,,,14,51:49,1,right,1,0.6703248999997413,None,,,,,,,,,Tokka,1 - without skip,"54:46, 51:49","2.5s, 2.0s",2023-07-20_14h33.55.870,Rewa's Exp,2023.1.2,59.99692815724245,
2.5,Countdown_2.5s.mp4,"[-1.0, 1.0, -1.0]",red,left,Countdown_2.5s.jpg,2,0,2,0,0,0,0,0,0,0,0,1,,,,,0,1,1,2,,,,,,,,223.14228319999984,224.18737360000023,1.0450904000003902,,,,,15,51:49,1,left,1,1.027756699999827,None,,,,,,,,,Tokka,1 - without skip,"54:46, 51:49","2.5s, 2.0s",2023-07-20_14h33.55.870,Rewa's Exp,2023.1.2,59.99692815724245,
2,Countdown_2s.mp4,red,"[-1.0, 1.0, -1.0]",right,Countdown_2s.jpg,2,0,2,0,0,0,0,0,0,0,0,1,,,,,0,2,2,1,,,,,,,,228.09874390000004,228.9373157,0.8385717999999542,,,,,16,51:49,1,right,1,0.8062967999994726,None,,,,,,,,,Tokka,1 - without skip,"54:46, 51:49","2.5s, 2.0s",2023-07-20_14h33.55.870,Rewa's Exp,2023.1.2,59.99692815724245,
2,Countdown_2s.mp4,"[-1.0, 1.0, -1.0]",red,left,Countdown_2s.jpg,2,0,2,0,0,0,0,0,0,0,0,1,,,,,0,3,3,3,,,,,,,,232.86860290000004,233.75395049999997,0.8853475999999318,,,,,17,51:49,1,left,1,0.853197899999941,None,,,,,,,,,Tokka,1 - without skip,"54:46, 51:49","2.5s, 2.0s",2023-07-20_14h33.55.870,Rewa's Exp,2023.1.2,59.99692815724245,
2,Countdown_2s.mp4,"[-1.0, 1.0, -1.0]",red,left,Countdown_2s.jpg,2,0,2,0,0,0,0,0,0,0,0,1,,,,,1,0,4,3,,,,,,,,237.65505029999986,238.50400459999992,0.8489543000000594,,,,,15,51:49,-2,right,0,0.817481300000054,None,,,,,,,,,Tokka,1 - without skip,"54:46, 51:49","2.5s, 2.0s",2023-07-20_14h33.55.870,Rewa's Exp,2023.1.2,59.99692815724245,
2.5,Countdown_2.5s.mp4,red,"[-1.0, 1.0, -1.0]",right,Countdown_2.5s.jpg,2,0,2,0,0,0,0,0,0,0,0,1,,,,,1,1,5,0,,,,,,,,242.41136860000006,243.47062050000022,1.059251900000163,,,,,13,51:49,-2,left,0,1.037786099999721,None,,,,,,,,,Tokka,1 - without skip,"54:46, 51:49","2.5s, 2.0s",2023-07-20_14h33.55.870,Rewa's Exp,2023.1.2,59.99692815724245,
2,Countdown_2s.mp4,red,"[-1.0, 1.0, -1.0]",right,Countdown_2s.jpg,2,0,2,0,0,0,0,0,0,0,0,1,,,,,1,2,6,1,,,,,,,,247.36253209999995,248.0874933,0.7249612000000525,,,,,14,51:49,1,right,1,0.6941956000000573,None,,,,,,,,,Tokka,1 - without skip,"54:46, 51:49","2.5s, 2.0s",2023-07-20_14h33.55.870,Rewa's Exp,2023.1.2,59.99692815724245,
2.5,Countdown_2.5s.mp4,"[-1.0, 1.0, -1.0]",red,left,Countdown_2.5s.jpg,2,0,2,0,0,0,0,0,0,0,0,1,,,,,1,3,7,2,,,,,,,,252.00866720000022,253.2042577000002,1.1955904999999802,,,,,15,51:49,1,left,1,1.177725499999724,None,,,,,,,,,Tokka,1 - without skip,"54:46, 51:49","2.5s, 2.0s",2023-07-20_14h33.55.870,Rewa's Exp,2023.1.2,59.99692815724245,
2,Countdown_2s.mp4,red,"[-1.0, 1.0, -1.0]",right,Countdown_2s.jpg,2,0,2,0,0,0,0,0,0,0,0,1,,,,,,,,,,,,,,,,,,,,,,,,,,,,,,259.58774570000014,259.58774570000014,259.58774570000014,259.58774570000014,space,1.8086653999998816,,,Tokka,1 - without skip,"54:46, 51:49","2.5s, 2.0s",2023-07-20_14h33.55.870,Rewa's Exp,2023.1.2,59.99692815724245,
2.5,Countdown_2.5s.mp4,"[-1.0, 1.0, -1.0]",red,left,Countdown_2.5s.jpg,3,0,3,0,0,0,0,1,0,0,0,2,0,0,0,2,,,,,,,,,,,,258.9386647000001,259.75406310000017,0.8153984000000492,left,1,0.7900742000001628,None,16,54:46,1,,,,,,,,,,,,,Tokka,1 - without skip,"54:46, 51:49","2.5s, 2.0s",2023-07-20_14h33.55.870,Rewa's Exp,2023.1.2,59.99692815724245,
2,Countdown_2s.mp4,"[-1.0, 1.0, -1.0]",red,left,Countdown_2s.jpg,3,0,3,0,0,0,0,1,0,0,0,2,0,1,1,3,,,,,,,,,,,,263.6433449000001,264.8376036999998,1.1942587999997158,left,1,1.1659162999999353,None,17,54:46,1,,,,,,,,,,,,,Tokka,1 - without skip,"54:46, 51:49","2.5s, 2.0s",2023-07-20_14h33.55.870,Rewa's Exp,2023.1.2,59.99692815724245,
2.5,Countdown_2.5s.mp4,red,"[-1.0, 1.0, -1.0]",right,Countdown_2.5s.jpg,3,0,3,0,0,0,0,1,0,0,0,2,0,2,2,0,,,,,,,,,,,,268.7977243999999,269.5043988000002,0.7066744000003382,right,1,0.6750953999999183,None,18,54:46,1,,,,,,,,,,,,,Tokka,1 - without skip,"54:46, 51:49","2.5s, 2.0s",2023-07-20_14h33.55.870,Rewa's Exp,2023.1.2,59.99692815724245,
2,Countdown_2s.mp4,red,"[-1.0, 1.0, -1.0]",right,Countdown_2s.jpg,3,0,3,0,0,0,0,1,0,0,0,2,0,3,3,1,,,,,,,,,,,,273.3904514000001,274.4213229000002,1.030871500000103,right,1,1.0028007999999318,None,19,54:46,1,,,,,,,,,,,,,Tokka,1 - without skip,"54:46, 51:49","2.5s, 2.0s",2023-07-20_14h33.55.870,Rewa's Exp,2023.1.2,59.99692815724245,
2,Countdown_2s.mp4,red,"[-1.0, 1.0, -1.0]",right,Countdown_2s.jpg,3,0,3,0,0,0,0,1,0,0,0,2,1,0,4,1,,,,,,,,,,,,278.3623324,279.38743680000016,1.0251044000001457,left,0,0.9990149000000201,None,17,54:46,-2,,,,,,,,,,,,,Tokka,1 - without skip,"54:46, 51:49","2.5s, 2.0s",2023-07-20_14h33.55.870,Rewa's Exp,2023.1.2,59.99692815724245,
2.5,Countdown_2.5s.mp4,red,"[-1.0, 1.0, -1.0]",right,Countdown_2.5s.jpg,3,0,3,0,0,0,0,1,0,0,0,2,1,1,5,0,,,,,,,,,,,,283.2756436999998,284.37080749999996,1.0951638000001367,left,0,1.0693780999999944,None,15,54:46,-2,,,,,,,,,,,,,Tokka,1 - without skip,"54:46, 51:49","2.5s, 2.0s",2023-07-20_14h33.55.870,Rewa's Exp,2023.1.2,59.99692815724245,
2,Countdown_2s.mp4,"[-1.0, 1.0, -1.0]",red,left,Countdown_2s.jpg,3,0,3,0,0,0,0,1,0,0,0,2,1,2,6,3,,,,,,,,,,,,288.27537570000004,289.15440660000013,0.8790309000000889,left,1,0.8537426999996569,None,16,54:46,1,,,,,,,,,,,,,Tokka,1 - without skip,"54:46, 51:49","2.5s, 2.0s",2023-07-20_14h33.55.870,Rewa's Exp,2023.1.2,59.99692815724245,
2.5,Countdown_2.5s.mp4,"[-1.0, 1.0, -1.0]",red,left,Countdown_2.5s.jpg,3,0,3,0,0,0,0,1,0,0,0,2,1,3,7,2,,,,,,,,,,,,293.0657006000001,293.88764170000013,0.8219411000000036,left,1,0.7904687999998714,None,17,54:46,1,,,,,,,,,,,,,Tokka,1 - without skip,"54:46, 51:49","2.5s, 2.0s",2023-07-20_14h33.55.870,Rewa's Exp,2023.1.2,59.99692815724245,
2,Countdown_2s.mp4,red,"[-1.0, 1.0, -1.0]",right,Countdown_2s.jpg,3,0,3,0,0,0,0,1,0,0,0,2,,,,,0,0,0,1,,,,,,,,297.8187425000001,298.63760379999985,0.8188612999997531,,,,,18,51:49,1,right,1,0.7990563999996994,None,,,,,,,,,Tokka,1 - without skip,"54:46, 51:49","2.5s, 2.0s",2023-07-20_14h33.55.870,Rewa's Exp,2023.1.2,59.99692815724245,
2.5,Countdown_2.5s.mp4,"[-1.0, 1.0, -1.0]",red,left,Countdown_2.5s.jpg,3,0,3,0,0,0,0,1,0,0,0,2,,,,,0,1,1,2,,,,,,,,302.54139570000007,303.6549298,1.1135340999999244,,,,,19,51:49,1,left,1,1.0831115999999383,None,,,,,,,,,Tokka,1 - without skip,"54:46, 51:49","2.5s, 2.0s",2023-07-20_14h33.55.870,Rewa's Exp,2023.1.2,59.99692815724245,
2.5,Countdown_2.5s.mp4,red,"[-1.0, 1.0, -1.0]",right,Countdown_2.5s.jpg,3,0,3,0,0,0,0,1,0,0,0,2,,,,,0,2,2,0,,,,,,,,307.5951749000001,308.8041025000002,1.2089276000001519,,,,,17,51:49,-2,left,0,1.1815652999998747,None,,,,,,,,,Tokka,1 - without skip,"54:46, 51:49","2.5s, 2.0s",2023-07-20_14h33.55.870,Rewa's Exp,2023.1.2,59.99692815724245,
2,Countdown_2s.mp4,"[-1.0, 1.0, -1.0]",red,left,Countdown_2s.jpg,3,0,3,0,0,0,0,1,0,0,0,2,,,,,0,3,3,3,,,,,,,,312.7520463999999,313.82115870000007,1.0691123000001426,,,,,18,51:49,1,left,1,1.0487865000000056,None,,,,,,,,,Tokka,1 - without skip,"54:46, 51:49","2.5s, 2.0s",2023-07-20_14h33.55.870,Rewa's Exp,2023.1.2,59.99692815724245,
2,Countdown_2s.mp4,red,"[-1.0, 1.0, -1.0]",right,Countdown_2s.jpg,3,0,3,0,0,0,0,1,0,0,0,2,,,,,1,0,4,1,,,,,,,,317.7483302999999,318.38755059999994,0.6392203000000336,,,,,19,51:49,1,right,1,0.6126308000002609,None,,,,,,,,,Tokka,1 - without skip,"54:46, 51:49","2.5s, 2.0s",2023-07-20_14h33.55.870,Rewa's Exp,2023.1.2,59.99692815724245,
2.5,Countdown_2.5s.mp4,"[-1.0, 1.0, -1.0]",red,left,Countdown_2.5s.jpg,3,0,3,0,0,0,0,1,0,0,0,2,,,,,1,1,5,2,,,,,,,,322.3188258,323.15433759999996,0.8355117999999493,,,,,20,51:49,1,left,1,0.8031751999997141,None,,,,,,,,,Tokka,1 - without skip,"54:46, 51:49","2.5s, 2.0s",2023-07-20_14h33.55.870,Rewa's Exp,2023.1.2,59.99692815724245,
2,Countdown_2s.mp4,"[-1.0, 1.0, -1.0]",red,left,Countdown_2s.jpg,3,0,3,0,0,0,0,1,0,0,0,2,,,,,1,2,6,3,,,,,,,,327.1080078,328.1209622000001,1.012954400000126,,,,,21,51:49,1,left,1,0.9803289999999834,None,,,,,,,,,Tokka,1 - without skip,"54:46, 51:49","2.5s, 2.0s",2023-07-20_14h33.55.870,Rewa's Exp,2023.1.2,59.99692815724245,
2.5,Countdown_2.5s.mp4,red,"[-1.0, 1.0, -1.0]",right,Countdown_2.5s.jpg,3,0,3,0,0,0,0,1,0,0,0,2,,,,,1,3,7,0,,,,,,,,332.0599235999998,332.90418279999994,0.8442592000001241,,,,,22,51:49,1,right,1,0.8123372000000018,None,,,,,,,,,Tokka,1 - without skip,"54:46, 51:49","2.5s, 2.0s",2023-07-20_14h33.55.870,Rewa's Exp,2023.1.2,59.99692815724245,
2.5,Countdown_2.5s.mp4,"[-1.0, 1.0, -1.0]",red,left,Countdown_2.5s.jpg,3,0,3,0,0,0,0,1,0,0,0,2,,,,,,,,,,,,,,,,,,,,,,,,,,,,,,339.2840831000003,339.2840831000003,339.2840831000003,339.2840831000003,space,1.7680676999998468,,,Tokka,1 - without skip,"54:46, 51:49","2.5s, 2.0s",2023-07-20_14h33.55.870,Rewa's Exp,2023.1.2,59.99692815724245,
2,Countdown_2s.mp4,red,"[-1.0, 1.0, -1.0]",right,Countdown_2s.jpg,4,0,4,0,0,0,0,2,0,0,0,2,0,0,0,1,,,,,,,,,,,,338.6322209,339.75427549999995,1.1220545999999558,right,1,1.1048310000001038,None,23,54:46,1,,,,,,,,,,,,,Tokka,1 - without skip,"54:46, 51:49","2.5s, 2.0s",2023-07-20_14h33.55.870,Rewa's Exp,2023.1.2,59.99692815724245,
2,Countdown_2s.mp4,"[-1.0, 1.0, -1.0]",red,left,Countdown_2s.jpg,4,0,4,0,0,0,0,2,0,0,0,2,0,1,1,3,,,,,,,,,,,,343.6632103000002,344.4378385,0.7746281999998246,left,1,0.7460450999997192,None,24,54:46,1,,,,,,,,,,,,,Tokka,1 - without skip,"54:46, 51:49","2.5s, 2.0s",2023-07-20_14h33.55.870,Rewa's Exp,2023.1.2,59.99692815724245,
2.5,Countdown_2.5s.mp4,"[-1.0, 1.0, -1.0]",red,left,Countdown_2.5s.jpg,4,0,4,0,0,0,0,2,0,0,0,2,0,2,2,2,,,,,,,,,,,,348.35820950000016,349.0209447000002,0.6627352000000428,left,1,0.6430626999995184,None,25,54:46,1,,,,,,,,,,,,,Tokka,1 - without skip,"54:46, 51:49","2.5s, 2.0s",2023-07-20_14h33.55.870,Rewa's Exp,2023.1.2,59.99692815724245,
2.5,Countdown_2.5s.mp4,red,"[-1.0, 1.0, -1.0]",right,Countdown_2.5s.jpg,4,0,4,0,0,0,0,2,0,0,0,2,0,3,3,0,,,,,,,,,,,,352.90871389999984,354.1710002,1.2622863000001416,right,1,1.245072899999741,None,26,54:46,1,,,,,,,,,,,,,Tokka,1 - without skip,"54:46, 51:49","2.5s, 2.0s",2023-07-20_14h33.55.870,Rewa's Exp,2023.1.2,59.99692815724245,
2,Countdown_2s.mp4,"[-1.0, 1.0, -1.0]",red,left,Countdown_2s.jpg,4,0,4,0,0,0,0,2,0,0,0,2,1,0,4,3,,,,,,,,,,,,358.05743399999983,358.7544240000002,0.696990000000369,left,1,0.6643810999999005,None,27,54:46,1,,,,,,,,,,,,,Tokka,1 - without skip,"54:46, 51:49","2.5s, 2.0s",2023-07-20_14h33.55.870,Rewa's Exp,2023.1.2,59.99692815724245,
2,Countdown_2s.mp4,red,"[-1.0, 1.0, -1.0]",right,Countdown_2s.jpg,4,0,4,0,0,0,0,2,0,0,0,2,1,1,5,1,,,,,,,,,,,,362.6582930999998,363.4377196999999,0.7794266000000789,right,1,0.7508280999995804,None,28,54:46,1,,,,,,,,,,,,,Tokka,1 - without skip,"54:46, 51:49","2.5s, 2.0s",2023-07-20_14h33.55.870,Rewa's Exp,2023.1.2,59.99692815724245,
2.5,Countdown_2.5s.mp4,"[-1.0, 1.0, -1.0]",red,left,Countdown_2.5s.jpg,4,0,4,0,0,0,0,2,0,0,0,2,1,2,6,2,,,,,,,,,,,,367.33666589999984,367.9378968000001,0.601230900000246,left,1,0.5771203999997851,None,29,54:46,1,,,,,,,,,,,,,Tokka,1 - without skip,"54:46, 51:49","2.5s, 2.0s",2023-07-20_14h33.55.870,Rewa's Exp,2023.1.2,59.99692815724245,
2.5,Countdown_2.5s.mp4,red,"[-1.0, 1.0, -1.0]",right,Countdown_2.5s.jpg,4,0,4,0,0,0,0,2,0,0,0,2,1,3,7,0,,,,,,,,,,,,371.8684162999998,372.55445499999996,0.6860387000001538,right,1,0.6688868000001094,None,30,54:46,1,,,,,,,,,,,,,Tokka,1 - without skip,"54:46, 51:49","2.5s, 2.0s",2023-07-20_14h33.55.870,Rewa's Exp,2023.1.2,59.99692815724245,
2.5,Countdown_2.5s.mp4,red,"[-1.0, 1.0, -1.0]",right,Countdown_2.5s.jpg,4,0,4,0,0,0,0,2,0,0,0,2,,,,,0,0,0,0,,,,,,,,376.4972278,377.4209274,0.9236995999999635,,,,,28,51:49,-2,left,0,0.9044370000001436,None,,,,,,,,,Tokka,1 - without skip,"54:46, 51:49","2.5s, 2.0s",2023-07-20_14h33.55.870,Rewa's Exp,2023.1.2,59.99692815724245,
2,Countdown_2s.mp4,"[-1.0, 1.0, -1.0]",red,left,Countdown_2s.jpg,4,0,4,0,0,0,0,2,0,0,0,2,,,,,0,1,1,3,,,,,,,,381.33186060000025,381.98772039999994,0.6558597999996891,,,,,26,51:49,-2,right,0,0.6297612999997,None,,,,,,,,,Tokka,1 - without skip,"54:46, 51:49","2.5s, 2.0s",2023-07-20_14h33.55.870,Rewa's Exp,2023.1.2,59.99692815724245,
2.5,Countdown_2.5s.mp4,"[-1.0, 1.0, -1.0]",red,left,Countdown_2.5s.jpg,4,0,4,0,0,0,0,2,0,0,0,2,,,,,0,2,2,2,,,,,,,,385.89390760000015,386.7543593999999,0.860451799999737,,,,,27,51:49,1,left,1,0.8364768000001277,None,,,,,,,,,Tokka,1 - without skip,"54:46, 51:49","2.5s, 2.0s",2023-07-20_14h33.55.870,Rewa's Exp,2023.1.2,59.99692815724245,
2,Countdown_2s.mp4,red,"[-1.0, 1.0, -1.0]",right,Countdown_2s.jpg,4,0,4,0,0,0,0,2,0,0,0,2,,,,,0,3,3,1,,,,,,,,390.66467439999997,391.5542501,0.8895757000000231,,,,,25,51:49,-2,left,0,0.8570562999998401,None,,,,,,,,,Tokka,1 - without skip,"54:46, 51:49","2.5s, 2.0s",2023-07-20_14h33.55.870,Rewa's Exp,2023.1.2,59.99692815724245,
2,Countdown_2s.mp4,"[-1.0, 1.0, -1.0]",red,left,Countdown_2s.jpg,4,0,4,0,0,0,0,2,0,0,0,2,,,,,1,0,4,3,,,,,,,,395.4898444999999,396.55442059999996,1.0645761000000675,,,,,26,51:49,1,left,1,1.0399180999997952,None,,,,,,,,,Tokka,1 - without skip,"54:46, 51:49","2.5s, 2.0s",2023-07-20_14h33.55.870,Rewa's Exp,2023.1.2,59.99692815724245,
2,Countdown_2s.mp4,red,"[-1.0, 1.0, -1.0]",right,Countdown_2s.jpg,4,0,4,0,0,0,0,2,0,0,0,2,,,,,1,1,5,1,,,,,,,,400.4478743999998,401.2383298999998,0.7904555000000073,,,,,27,51:49,1,right,1,0.7693341999997756,None,,,,,,,,,Tokka,1 - without skip,"54:46, 51:49","2.5s, 2.0s",2023-07-20_14h33.55.870,Rewa's Exp,2023.1.2,59.99692815724245,
2.5,Countdown_2.5s.mp4,"[-1.0, 1.0, -1.0]",red,left,Countdown_2.5s.jpg,4,0,4,0,0,0,0,2,0,0,0,2,,,,,1,2,6,2,,,,,,,,405.1675989999999,406.12144960000023,0.9538506000003508,,,,,28,51:49,1,left,1,0.9208126999997148,None,,,,,,,,,Tokka,1 - without skip,"54:46, 51:49","2.5s, 2.0s",2023-07-20_14h33.55.870,Rewa's Exp,2023.1.2,59.99692815724245,
2.5,Countdown_2.5s.mp4,red,"[-1.0, 1.0, -1.0]",right,Countdown_2.5s.jpg,4,0,4,0,0,0,0,2,0,0,0,2,,,,,1,3,7,0,,,,,,,,410.0303136000002,410.87120760000016,0.8408939999999347,,,,,29,51:49,1,right,1,0.8187276999997266,None,,,,,,,,,Tokka,1 - without skip,"54:46, 51:49","2.5s, 2.0s",2023-07-20_14h33.55.870,Rewa's Exp,2023.1.2,59.99692815724245,
2.5,Countdown_2.5s.mp4,"[-1.0, 1.0, -1.0]",red,left,Countdown_2.5s.jpg,4,0,4,0,0,0,0,2,0,0,0,2,,,,,,,,,,,,,,,,,,,,,,,,,,,,,,417.2560333000001,417.2560333000001,417.2560333000001,417.2560333000001,space,2.012275900000077,,,Tokka,1 - without skip,"54:46, 51:49","2.5s, 2.0s",2023-07-20_14h33.55.870,Rewa's Exp,2023.1.2,59.99692815724245,
2.5,Countdown_2.5s.mp4,red,"[-1.0, 1.0, -1.0]",right,Countdown_2.5s.jpg,5,0,5,0,0,0,0,3,0,0,0,0,0,0,0,0,,,,,,,,,,,,416.87617790000013,417.62162149999995,0.7454435999998168,left,0,0.7263671999999133,None,27,54:46,-2,,,,,,,,,,,,,Tokka,1 - without skip,"54:46, 51:49","2.5s, 2.0s",2023-07-20_14h33.55.870,Rewa's Exp,2023.1.2,59.99692815724245,
2,Countdown_2s.mp4,"[-1.0, 1.0, -1.0]",red,left,Countdown_2s.jpg,5,0,5,0,0,0,0,3,0,0,0,0,0,1,1,3,,,,,,,,,,,,421.54011679999985,422.2546861999999,0.7145694000000731,left,1,0.6936960000002728,None,28,54:46,1,,,,,,,,,,,,,Tokka,1 - without skip,"54:46, 51:49","2.5s, 2.0s",2023-07-20_14h33.55.870,Rewa's Exp,2023.1.2,59.99692815724245,
2,Countdown_2s.mp4,red,"[-1.0, 1.0, -1.0]",right,Countdown_2s.jpg,5,0,5,0,0,0,0,3,0,0,0,0,0,2,2,1,,,,,,,,,,,,426.2296703000002,427.00463260000015,0.7749622999999701,right,1,0.7556276999998772,None,29,54:46,1,,,,,,,,,,,,,Tokka,1 - without skip,"54:46, 51:49","2.5s, 2.0s",2023-07-20_14h33.55.870,Rewa's Exp,2023.1.2,59.99692815724245,
2.5,Countdown_2.5s.mp4,"[-1.0, 1.0, -1.0]",red,left,Countdown_2.5s.jpg,5,0,5,0,0,0,0,3,0,0,0,0,0,3,3,2,,,,,,,,,,,,430.91519659999994,431.6213527,0.7061561000000438,left,1,0.6853188000000046,None,30,54:46,1,,,,,,,,,,,,,Tokka,1 - without skip,"54:46, 51:49","2.5s, 2.0s",2023-07-20_14h33.55.870,Rewa's Exp,2023.1.2,59.99692815724245,
2.5,Countdown_2.5s.mp4,red,"[-1.0, 1.0, -1.0]",right,Countdown_2.5s.jpg,5,0,5,0,0,0,0,3,0,0,0,0,1,0,4,0,,,,,,,,,,,,435.5096738000002,436.1546619999999,0.644988199999716,left,0,0.6121300999998311,None,28,54:46,-2,,,,,,,,,,,,,Tokka,1 - without skip,"54:46, 51:49","2.5s, 2.0s",2023-07-20_14h33.55.870,Rewa's Exp,2023.1.2,59.99692815724245,
2.5,Countdown_2.5s.mp4,"[-1.0, 1.0, -1.0]",red,left,Countdown_2.5s.jpg,5,0,5,0,0,0,0,3,0,0,0,0,1,1,5,2,,,,,,,,,,,,440.06688940000004,441.10443190000024,1.0375425000001997,left,1,1.0139515999999276,None,29,54:46,1,,,,,,,,,,,,,Tokka,1 - without skip,"54:46, 51:49","2.5s, 2.0s",2023-07-20_14h33.55.870,Rewa's Exp,2023.1.2,59.99692815724245,
2,Countdown_2s.mp4,red,"[-1.0, 1.0, -1.0]",right,Countdown_2s.jpg,5,0,5,0,0,0,0,3,0,0,0,0,1,2,6,1,,,,,,,,,,,,445.0329707000001,445.72142080000003,0.6884500999999545,right,1,0.6719214999998258,None,30,54:46,1,,,,,,,,,,,,,Tokka,1 - without skip,"54:46, 51:49","2.5s, 2.0s",2023-07-20_14h33.55.870,Rewa's Exp,2023.1.2,59.99692815724245,
2,Countdown_2s.mp4,"[-1.0, 1.0, -1.0]",red,left,Countdown_2s.jpg,5,0,5,0,0,0,0,3,0,0,0,0,1,3,7,3,,,,,,,,,,,,449.64515530000017,450.25481260000015,0.6096572999999808,left,1,0.58106110000017,None,31,54:46,1,,,,,,,,,,,,,Tokka,1 - without skip,"54:46, 51:49","2.5s, 2.0s",2023-07-20_14h33.55.870,Rewa's Exp,2023.1.2,59.99692815724245,
2.5,Countdown_2.5s.mp4,"[-1.0, 1.0, -1.0]",red,left,Countdown_2.5s.jpg,5,0,5,0,0,0,0,3,0,0,0,0,,,,,0,0,0,2,,,,,,,,454.17671280000013,455.2546532000001,1.0779403999999886,,,,,32,51:49,1,left,1,1.0567552999996224,None,,,,,,,,,Tokka,1 - without skip,"54:46, 51:49","2.5s, 2.0s",2023-07-20_14h33.55.870,Rewa's Exp,2023.1.2,59.99692815724245,
2,Countdown_2s.mp4,"[-1.0, 1.0, -1.0]",red,left,Countdown_2s.jpg,5,0,5,0,0,0,0,3,0,0,0,0,,,,,0,1,1,3,,,,,,,,459.18093850000014,460.1378687000001,0.956930199999988,,,,,33,51:49,1,left,1,0.9328937999998743,None,,,,,,,,,Tokka,1 - without skip,"54:46, 51:49","2.5s, 2.0s",2023-07-20_14h33.55.870,Rewa's Exp,2023.1.2,59.99692815724245,
2.5,Countdown_2.5s.mp4,red,"[-1.0, 1.0, -1.0]",right,Countdown_2.5s.jpg,5,0,5,0,0,0,0,3,0,0,0,0,,,,,0,2,2,0,,,,,,,,464.0968892000001,465.0212845000001,0.9243953000000147,,,,,31,51:49,-2,left,0,0.8953651000001628,None,,,,,,,,,Tokka,1 - without skip,"54:46, 51:49","2.5s, 2.0s",2023-07-20_14h33.55.870,Rewa's Exp,2023.1.2,59.99692815724245,
2,Countdown_2s.mp4,red,"[-1.0, 1.0, -1.0]",right,Countdown_2s.jpg,5,0,5,0,0,0,0,3,0,0,0,0,,,,,0,3,3,1,,,,,,,,468.9266914,469.65442970000004,0.7277383000000555,,,,,32,51:49,1,right,1,0.6977170999998634,None,,,,,,,,,Tokka,1 - without skip,"54:46, 51:49","2.5s, 2.0s",2023-07-20_14h33.55.870,Rewa's Exp,2023.1.2,59.99692815724245,
2.5,Countdown_2.5s.mp4,"[-1.0, 1.0, -1.0]",red,left,Countdown_2.5s.jpg,5,0,5,0,0,0,0,3,0,0,0,0,,,,,1,0,4,2,,,,,,,,473.57038349999993,474.5046575000001,0.9342740000001868,,,,,30,51:49,-2,right,0,0.9109517000001688,None,,,,,,,,,Tokka,1 - without skip,"54:46, 51:49","2.5s, 2.0s",2023-07-20_14h33.55.870,Rewa's Exp,2023.1.2,59.99692815724245,
2.5,Countdown_2.5s.mp4,red,"[-1.0, 1.0, -1.0]",right,Countdown_2.5s.jpg,5,0,5,0,0,0,0,3,0,0,0,0,,,,,1,1,5,0,,,,,,,,478.3986617999999,479.48777150000024,1.0891097000003356,,,,,28,51:49,-2,left,0,1.0665205999998761,None,,,,,,,,,Tokka,1 - without skip,"54:46, 51:49","2.5s, 2.0s",2023-07-20_14h33.55.870,Rewa's Exp,2023.1.2,59.99692815724245,
2,Countdown_2s.mp4,red,"[-1.0, 1.0, -1.0]",right,Countdown_2s.jpg,5,0,5,0,0,0,0,3,0,0,0,0,,,,,1,2,6,1,,,,,,,,483.4153169000001,484.1879686000002,0.7726517000000968,,,,,26,51:49,-2,left,0,0.7457617999998547,None,,,,,,,,,Tokka,1 - without skip,"54:46, 51:49","2.5s, 2.0s",2023-07-20_14h33.55.870,Rewa's Exp,2023.1.2,59.99692815724245,
2,Countdown_2s.mp4,"[-1.0, 1.0, -1.0]",red,left,Countdown_2s.jpg,5,0,5,0,0,0,0,3,0,0,0,0,,,,,1,3,7,3,,,,,,,,488.13901609999994,489.1378255999998,0.9988094999998793,,,,,27,51:49,1,left,1,0.9818748999996387,None,,,,,,,,,Tokka,1 - without skip,"54:46, 51:49","2.5s, 2.0s",2023-07-20_14h33.55.870,Rewa's Exp,2023.1.2,59.99692815724245,
2.5,Countdown_2.5s.mp4,red,"[-1.0, 1.0, -1.0]",right,Countdown_2.5s.jpg,5,0,5,0,0,0,0,3,0,0,0,0,,,,,,,,,,,,,,,,,,,,,,,,,,,,,,495.5172327,495.5172327,495.5172327,495.5172327,space,1.7589979999997922,,,Tokka,1 - without skip,"54:46, 51:49","2.5s, 2.0s",2023-07-20_14h33.55.870,Rewa's Exp,2023.1.2,59.99692815724245,
2.5,Countdown_2.5s.mp4,red,"[-1.0, 1.0, -1.0]",right,Countdown_2.5s.jpg,6,0,6,0,0,0,0,0,0,0,0,0,0,0,0,0,,,,,,,,,,,,494.84085060000007,496.03789510000024,1.1970445000001746,right,1,1.1683056999995642,None,28,54:46,1,,,,,,,,,,,,,Tokka,1 - without skip,"54:46, 51:49","2.5s, 2.0s",2023-07-20_14h33.55.870,Rewa's Exp,2023.1.2,59.99692815724245,
2,Countdown_2s.mp4,"[-1.0, 1.0, -1.0]",red,left,Countdown_2s.jpg,6,0,6,0,0,0,0,0,0,0,0,0,0,1,1,3,,,,,,,,,,,,499.95731920000026,500.67167310000013,0.7143538999998782,left,1,0.6830887999994957,None,29,54:46,1,,,,,,,,,,,,,Tokka,1 - without skip,"54:46, 51:49","2.5s, 2.0s",2023-07-20_14h33.55.870,Rewa's Exp,2023.1.2,59.99692815724245,
2,Countdown_2s.mp4,red,"[-1.0, 1.0, -1.0]",right,Countdown_2s.jpg,6,0,6,0,0,0,0,0,0,0,0,0,0,2,2,1,,,,,,,,,,,,504.6224271000001,505.6552121999998,1.0327850999997281,right,1,1.0024739000000409,None,30,54:46,1,,,,,,,,,,,,,Tokka,1 - without skip,"54:46, 51:49","2.5s, 2.0s",2023-07-20_14h33.55.870,Rewa's Exp,2023.1.2,59.99692815724245,
2.5,Countdown_2.5s.mp4,"[-1.0, 1.0, -1.0]",red,left,Countdown_2.5s.jpg,6,0,6,0,0,0,0,0,0,0,0,0,0,3,3,2,,,,,,,,,,,,509.57456060000004,510.42172600000004,0.8471653999999944,left,1,0.8183483999996497,None,31,54:46,1,,,,,,,,,,,,,Tokka,1 - without skip,"54:46, 51:49","2.5s, 2.0s",2023-07-20_14h33.55.870,Rewa's Exp,2023.1.2,59.99692815724245,
2.5,Countdown_2.5s.mp4,"[-1.0, 1.0, -1.0]",red,left,Countdown_2.5s.jpg,6,0,6,0,0,0,0,0,0,0,0,0,1,0,4,2,,,,,,,,,,,,514.3315643999999,515.5047966000002,1.1732322000002569,right,0,1.1407737999998062,None,29,54:46,-2,,,,,,,,,,,,,Tokka,1 - without skip,"54:46, 51:49","2.5s, 2.0s",2023-07-20_14h33.55.870,Rewa's Exp,2023.1.2,59.99692815724245,
2,Countdown_2s.mp4,red,"[-1.0, 1.0, -1.0]",right,Countdown_2s.jpg,6,0,6,0,0,0,0,0,0,0,0,0,1,1,5,1,,,,,,,,,,,,519.449384,520.3380791,0.8886950999999499,left,0,0.8567643999999746,None,27,54:46,-2,,,,,,,,,,,,,Tokka,1 - without skip,"54:46, 51:49","2.5s, 2.0s",2023-07-20_14h33.55.870,Rewa's Exp,2023.1.2,59.99692815724245,
2,Countdown_2s.mp4,"[-1.0, 1.0, -1.0]",red,left,Countdown_2s.jpg,6,0,6,0,0,0,0,0,0,0,0,0,1,2,6,3,,,,,,,,,,,,524.2808912,524.9550480000003,0.6741568000002189,left,1,0.6483420999998089,None,28,54:46,1,,,,,,,,,,,,,Tokka,1 - without skip,"54:46, 51:49","2.5s, 2.0s",2023-07-20_14h33.55.870,Rewa's Exp,2023.1.2,59.99692815724245,
2.5,Countdown_2.5s.mp4,red,"[-1.0, 1.0, -1.0]",right,Countdown_2.5s.jpg,6,0,6,0,0,0,0,0,0,0,0,0,1,3,7,0,,,,,,,,,,,,528.8936463,529.6213941999999,0.7277478999999403,right,1,0.6991971999996167,None,29,54:46,1,,,,,,,,,,,,,Tokka,1 - without skip,"54:46, 51:49","2.5s, 2.0s",2023-07-20_14h33.55.870,Rewa's Exp,2023.1.2,59.99692815724245,
2,Countdown_2s.mp4,"[-1.0, 1.0, -1.0]",red,left,Countdown_2s.jpg,6,0,6,0,0,0,0,0,0,0,0,0,,,,,0,0,0,3,,,,,,,,533.5479368000001,534.1882242000001,0.6402874000000338,,,,,30,51:49,1,left,1,0.6238798999997925,None,,,,,,,,,Tokka,1 - without skip,"54:46, 51:49","2.5s, 2.0s",2023-07-20_14h33.55.870,Rewa's Exp,2023.1.2,59.99692815724245,
2,Countdown_2s.mp4,red,"[-1.0, 1.0, -1.0]",right,Countdown_2s.jpg,6,0,6,0,0,0,0,0,0,0,0,0,,,,,0,1,1,1,,,,,,,,538.0809356999998,539.1045758,1.0236401000001933,,,,,31,51:49,1,right,1,1.0002426999999443,None,,,,,,,,,Tokka,1 - without skip,"54:46, 51:49","2.5s, 2.0s",2023-07-20_14h33.55.870,Rewa's Exp,2023.1.2,59.99692815724245,
2.5,Countdown_2.5s.mp4,red,"[-1.0, 1.0, -1.0]",right,Countdown_2.5s.jpg,6,0,6,0,0,0,0,0,0,0,0,0,,,,,0,2,2,0,,,,,,,,543.0012043000002,544.0212855,1.0200811999998223,,,,,29,51:49,-2,left,0,0.9999033999997664,None,,,,,,,,,Tokka,1 - without skip,"54:46, 51:49","2.5s, 2.0s",2023-07-20_14h33.55.870,Rewa's Exp,2023.1.2,59.99692815724245,
2.5,Countdown_2.5s.mp4,"[-1.0, 1.0, -1.0]",red,left,Countdown_2.5s.jpg,6,0,6,0,0,0,0,0,0,0,0,0,,,,,0,3,3,2,,,,,,,,547.9228434000001,549.3048303999999,1.3819869999997536,,,,,30,51:49,1,left,1,1.34984489999988,None,,,,,,,,,Tokka,1 - without skip,"54:46, 51:49","2.5s, 2.0s",2023-07-20_14h33.55.870,Rewa's Exp,2023.1.2,59.99692815724245,
2,Countdown_2s.mp4,red,"[-1.0, 1.0, -1.0]",right,Countdown_2s.jpg,6,0,6,0,0,0,0,0,0,0,0,0,,,,,1,0,4,1,,,,,,,,553.1822962000001,553.9047092999999,0.7224130999998124,,,,,31,51:49,1,right,1,0.6902664999997796,None,,,,,,,,,Tokka,1 - without skip,"54:46, 51:49","2.5s, 2.0s",2023-07-20_14h33.55.870,Rewa's Exp,2023.1.2,59.99692815724245,
2.5,Countdown_2.5s.mp4,"[-1.0, 1.0, -1.0]",red,left,Countdown_2.5s.jpg,6,0,6,0,0,0,0,0,0,0,0,0,,,,,1,1,5,2,,,,,,,,557.8157449,558.7879676000002,0.9722227000002022,,,,,32,51:49,1,left,1,0.9458295999997972,None,,,,,,,,,Tokka,1 - without skip,"54:46, 51:49","2.5s, 2.0s",2023-07-20_14h33.55.870,Rewa's Exp,2023.1.2,59.99692815724245,
2.5,Countdown_2.5s.mp4,red,"[-1.0, 1.0, -1.0]",right,Countdown_2.5s.jpg,6,0,6,0,0,0,0,0,0,0,0,0,,,,,1,2,6,0,,,,,,,,562.6776295999998,563.4881022,0.8104726000001392,,,,,33,51:49,1,right,1,0.787556400000085,None,,,,,,,,,Tokka,1 - without skip,"54:46, 51:49","2.5s, 2.0s",2023-07-20_14h33.55.870,Rewa's Exp,2023.1.2,59.99692815724245,
2,Countdown_2s.mp4,"[-1.0, 1.0, -1.0]",red,left,Countdown_2s.jpg,6,0,6,0,0,0,0,0,0,0,0,0,,,,,1,3,7,3,,,,,,,,567.3701074999999,568.3714217000002,1.0013142000002517,,,,,34,51:49,1,left,1,0.9752024999997957,None,,,,,,,,,Tokka,1 - without skip,"54:46, 51:49","2.5s, 2.0s",2023-07-20_14h33.55.870,Rewa's Exp,2023.1.2,59.99692815724245,
2.5,Countdown_2.5s.mp4,red,"[-1.0, 1.0, -1.0]",right,Countdown_2.5s.jpg,6,0,6,0,0,0,0,0,0,0,0,0,,,,,,,,,,,,,,,,,,,,,,,,,,,,,,574.752434,574.752434,574.752434,574.752434,space,2.5167468999998164,,,Tokka,1 - without skip,"54:46, 51:49","2.5s, 2.0s",2023-07-20_14h33.55.870,Rewa's Exp,2023.1.2,59.99692815724245,
2,Countdown_2s.mp4,red,"[-1.0, 1.0, -1.0]",right,Countdown_2s.jpg,7,0,7,0,0,0,0,3,0,0,0,1,0,0,0,1,,,,,,,,,,,,574.8647033000002,575.8555182,0.9908148999998048,left,0,0.9598632999995971,None,32,54:46,-2,,,,,,,,,,,,,Tokka,1 - without skip,"54:46, 51:49","2.5s, 2.0s",2023-07-20_14h33.55.870,Rewa's Exp,2023.1.2,59.99692815724245,
2.5,Countdown_2.5s.mp4,red,"[-1.0, 1.0, -1.0]",right,Countdown_2.5s.jpg,7,0,7,0,0,0,0,3,0,0,0,1,0,1,1,0,,,,,,,,,,,,579.7951051,580.4214176999999,0.626312599999892,left,0,0.606970100000126,None,30,54:46,-2,,,,,,,,,,,,,Tokka,1 - without skip,"54:46, 51:49","2.5s, 2.0s",2023-07-20_14h33.55.870,Rewa's Exp,2023.1.2,59.99692815724245,
2,Countdown_2s.mp4,"[-1.0, 1.0, -1.0]",red,left,Countdown_2s.jpg,7,0,7,0,0,0,0,3,0,0,0,1,0,2,2,3,,,,,,,,,,,,584.3588611999999,585.2547565999998,0.8958953999999721,left,1,0.8661068000001251,None,31,54:46,1,,,,,,,,,,,,,Tokka,1 - without skip,"54:46, 51:49","2.5s, 2.0s",2023-07-20_14h33.55.870,Rewa's Exp,2023.1.2,59.99692815724245,
2.5,Countdown_2.5s.mp4,"[-1.0, 1.0, -1.0]",red,left,Countdown_2.5s.jpg,7,0,7,0,0,0,0,3,0,0,0,1,0,3,3,2,,,,,,,,,,,,589.1550829000003,589.9381847999998,0.7831018999995649,left,1,0.765804499999831,None,32,54:46,1,,,,,,,,,,,,,Tokka,1 - without skip,"54:46, 51:49","2.5s, 2.0s",2023-07-20_14h33.55.870,Rewa's Exp,2023.1.2,59.99692815724245,
2,Countdown_2s.mp4,"[-1.0, 1.0, -1.0]",red,left,Countdown_2s.jpg,7,0,7,0,0,0,0,3,0,0,0,1,1,0,4,3,,,,,,,,,,,,593.8315329000002,594.7054357000002,0.8739027999999962,right,0,0.8503316999999697,None,30,54:46,-2,,,,,,,,,,,,,Tokka,1 - without skip,"54:46, 51:49","2.5s, 2.0s",2023-07-20_14h33.55.870,Rewa's Exp,2023.1.2,59.99692815724245,
2.5,Countdown_2.5s.mp4,red,"[-1.0, 1.0, -1.0]",right,Countdown_2.5s.jpg,7,0,7,0,0,0,0,3,0,0,0,1,1,1,5,0,,,,,,,,,,,,598.6272121000002,599.3387459999999,0.711533899999722,right,1,0.6943525999995472,None,31,54:46,1,,,,,,,,,,,,,Tokka,1 - without skip,"54:46, 51:49","2.5s, 2.0s",2023-07-20_14h33.55.870,Rewa's Exp,2023.1.2,59.99692815724245,
2.5,Countdown_2.5s.mp4,"[-1.0, 1.0, -1.0]",red,left,Countdown_2.5s.jpg,7,0,7,0,0,0,0,3,0,0,0,1,1,2,6,2,,,,,,,,,,,,603.2669903999999,604.3549607999998,1.0879703999999037,left,1,1.0705815999999686,None,32,54:46,1,,,,,,,,,,,,,Tokka,1 - without skip,"54:46, 51:49","2.5s, 2.0s",2023-07-20_14h33.55.870,Rewa's Exp,2023.1.2,59.99692815724245,
2,Countdown_2s.mp4,red,"[-1.0, 1.0, -1.0]",right,Countdown_2s.jpg,7,0,7,0,0,0,0,3,0,0,0,1,1,3,7,1,,,,,,,,,,,,608.2586193000002,609.0581403000001,0.7995209999999133,left,0,0.7736847000001035,None,30,54:46,-2,,,,,,,,,,,,,Tokka,1 - without skip,"54:46, 51:49","2.5s, 2.0s",2023-07-20_14h33.55.870,Rewa's Exp,2023.1.2,59.99692815724245,
2.5,Countdown_2.5s.mp4,"[-1.0, 1.0, -1.0]",red,left,Countdown_2.5s.jpg,7,0,7,0,0,0,0,3,0,0,0,1,,,,,0,0,0,2,,,,,,,,612.9749514,613.8713103999999,0.8963589999998476,,,,,31,51:49,1,left,1,0.8657656999998835,None,,,,,,,,,Tokka,1 - without skip,"54:46, 51:49","2.5s, 2.0s",2023-07-20_14h33.55.870,Rewa's Exp,2023.1.2,59.99692815724245,
2.5,Countdown_2.5s.mp4,red,"[-1.0, 1.0, -1.0]",right,Countdown_2.5s.jpg,7,0,7,0,0,0,0,3,0,0,0,1,,,,,0,1,1,0,,,,,,,,617.7767675999999,618.8547474000002,1.0779798000003211,,,,,32,51:49,1,right,1,1.0485198999999739,None,,,,,,,,,Tokka,1 - without skip,"54:46, 51:49","2.5s, 2.0s",2023-07-20_14h33.55.870,Rewa's Exp,2023.1.2,59.99692815724245,
2,Countdown_2s.mp4,"[-1.0, 1.0, -1.0]",red,left,Countdown_2s.jpg,7,0,7,0,0,0,0,3,0,0,0,1,,,,,0,2,2,3,,,,,,,,622.7884050000002,623.5724765999998,0.7840715999996064,,,,,33,51:49,1,left,1,0.7565365999998903,None,,,,,,,,,Tokka,1 - without skip,"54:46, 51:49","2.5s, 2.0s",2023-07-20_14h33.55.870,Rewa's Exp,2023.1.2,59.99692815724245,
2,Countdown_2s.mp4,red,"[-1.0, 1.0, -1.0]",right,Countdown_2s.jpg,7,0,7,0,0,0,0,3,0,0,0,1,,,,,0,3,3,1,,,,,,,,627.4669586,628.4050167,0.9380581000000348,,,,,31,51:49,-2,left,0,0.9190646000001834,None,,,,,,,,,Tokka,1 - without skip,"54:46, 51:49","2.5s, 2.0s",2023-07-20_14h33.55.870,Rewa's Exp,2023.1.2,59.99692815724245,
2.5,Countdown_2.5s.mp4,"[-1.0, 1.0, -1.0]",red,left,Countdown_2.5s.jpg,7,0,7,0,0,0,0,3,0,0,0,1,,,,,1,0,4,2,,,,,,,,632.2953447,633.2051121,0.9097673999999643,,,,,32,51:49,1,left,1,0.881881699999667,None,,,,,,,,,Tokka,1 - without skip,"54:46, 51:49","2.5s, 2.0s",2023-07-20_14h33.55.870,Rewa's Exp,2023.1.2,59.99692815724245,
2,Countdown_2s.mp4,red,"[-1.0, 1.0, -1.0]",right,Countdown_2s.jpg,7,0,7,0,0,0,0,3,0,0,0,1,,,,,1,1,5,1,,,,,,,,637.1270806000002,638.0547959999999,0.9277153999996699,,,,,30,51:49,-2,left,0,0.8974613000000318,None,,,,,,,,,Tokka,1 - without skip,"54:46, 51:49","2.5s, 2.0s",2023-07-20_14h33.55.870,Rewa's Exp,2023.1.2,59.99692815724245,
2.5,Countdown_2.5s.mp4,red,"[-1.0, 1.0, -1.0]",right,Countdown_2.5s.jpg,7,0,7,0,0,0,0,3,0,0,0,1,,,,,1,2,6,0,,,,,,,,641.9726408000001,642.7216842000003,0.7490434000001187,,,,,31,51:49,1,right,1,0.7167984999996406,None,,,,,,,,,Tokka,1 - without skip,"54:46, 51:49","2.5s, 2.0s",2023-07-20_14h33.55.870,Rewa's Exp,2023.1.2,59.99692815724245,
2,Countdown_2s.mp4,"[-1.0, 1.0, -1.0]",red,left,Countdown_2s.jpg,7,0,7,0,0,0,0,3,0,0,0,1,,,,,1,3,7,3,,,,,,,,646.6531619000002,647.5881161000002,0.9349541999999929,,,,,32,51:49,1,left,1,0.9169219000000339,None,,,,,,,,,Tokka,1 - without skip,"54:46, 51:49","2.5s, 2.0s",2023-07-20_14h33.55.870,Rewa's Exp,2023.1.2,59.99692815724245,
2,Countdown_2s.mp4,red,"[-1.0, 1.0, -1.0]",right,Countdown_2s.jpg,7,0,7,0,0,0,0,3,0,0,0,1,,,,,,,,,,,,,,,,,,,,,,,,,,,,,,653.9565237000002,653.9565237000002,653.9565237000002,653.9565237000002,space,2.120388300000286,,,Tokka,1 - without skip,"54:46, 51:49","2.5s, 2.0s",2023-07-20_14h33.55.870,Rewa's Exp,2023.1.2,59.99692815724245,
2.5,Countdown_2.5s.mp4,"[-1.0, 1.0, -1.0]",red,left,Countdown_2.5s.jpg,8,0,8,0,0,0,0,0,0,0,0,3,0,0,0,2,,,,,,,,,,,,653.6593702,654.4224205999999,0.7630503999998837,left,1,0.7339983000001666,None,33,54:46,1,,,,,,,,,,,,,Tokka,1 - without skip,"54:46, 51:49","2.5s, 2.0s",2023-07-20_14h33.55.870,Rewa's Exp,2023.1.2,59.99692815724245,
2.5,Countdown_2.5s.mp4,red,"[-1.0, 1.0, -1.0]",right,Countdown_2.5s.jpg,8,0,8,0,0,0,0,0,0,0,0,3,0,1,1,0,,,,,,,,,,,,658.3421287000001,659.3882475,1.046118799999931,right,1,1.019717799999853,None,34,54:46,1,,,,,,,,,,,,,Tokka,1 - without skip,"54:46, 51:49","2.5s, 2.0s",2023-07-20_14h33.55.870,Rewa's Exp,2023.1.2,59.99692815724245,
2,Countdown_2s.mp4,red,"[-1.0, 1.0, -1.0]",right,Countdown_2s.jpg,8,0,8,0,0,0,0,0,0,0,0,3,0,2,2,1,,,,,,,,,,,,663.2893131000001,664.0717306000001,0.782417500000065,left,0,0.7520515999999589,None,32,54:46,-2,,,,,,,,,,,,,Tokka,1 - without skip,"54:46, 51:49","2.5s, 2.0s",2023-07-20_14h33.55.870,Rewa's Exp,2023.1.2,59.99692815724245,
2,Countdown_2s.mp4,"[-1.0, 1.0, -1.0]",red,left,Countdown_2s.jpg,8,0,8,0,0,0,0,0,0,0,0,3,0,3,3,3,,,,,,,,,,,,667.9691271000002,668.8053684000001,0.8362412999999833,left,1,0.8163165000000845,None,33,54:46,1,,,,,,,,,,,,,Tokka,1 - without skip,"54:46, 51:49","2.5s, 2.0s",2023-07-20_14h33.55.870,Rewa's Exp,2023.1.2,59.99692815724245,
2,Countdown_2s.mp4,red,"[-1.0, 1.0, -1.0]",right,Countdown_2s.jpg,8,0,8,0,0,0,0,0,0,0,0,3,1,0,4,1,,,,,,,,,,,,672.7709180000002,673.7226829000001,0.9517648999999437,left,0,0.9183467999996537,None,31,54:46,-2,,,,,,,,,,,,,Tokka,1 - without skip,"54:46, 51:49","2.5s, 2.0s",2023-07-20_14h33.55.870,Rewa's Exp,2023.1.2,59.99692815724245,
2.5,Countdown_2.5s.mp4,red,"[-1.0, 1.0, -1.0]",right,Countdown_2.5s.jpg,8,0,8,0,0,0,0,0,0,0,0,3,1,1,5,0,,,,,,,,,,,,677.6501662000001,678.5884354,0.9382691999999224,right,1,0.9196728999995685,None,32,54:46,1,,,,,,,,,,,,,Tokka,1 - without skip,"54:46, 51:49","2.5s, 2.0s",2023-07-20_14h33.55.870,Rewa's Exp,2023.1.2,59.99692815724245,
2.5,Countdown_2.5s.mp4,"[-1.0, 1.0, -1.0]",red,left,Countdown_2.5s.jpg,8,0,8,0,0,0,0,0,0,0,0,3,1,2,6,2,,,,,,,,,,,,682.4795915999998,683.1717317000002,0.6921401000004153,left,1,0.6738219999997455,None,33,54:46,1,,,,,,,,,,,,,Tokka,1 - without skip,"54:46, 51:49","2.5s, 2.0s",2023-07-20_14h33.55.870,Rewa's Exp,2023.1.2,59.99692815724245,
2,Countdown_2s.mp4,"[-1.0, 1.0, -1.0]",red,left,Countdown_2s.jpg,8,0,8,0,0,0,0,0,0,0,0,3,1,3,7,3,,,,,,,,,,,,687.1240217999998,687.9884934000002,0.8644716000003427,right,0,0.8376855999999862,None,31,54:46,-2,,,,,,,,,,,,,Tokka,1 - without skip,"54:46, 51:49","2.5s, 2.0s",2023-07-20_14h33.55.870,Rewa's Exp,2023.1.2,59.99692815724245,
2.5,Countdown_2.5s.mp4,"[-1.0, 1.0, -1.0]",red,left,Countdown_2.5s.jpg,8,0,8,0,0,0,0,0,0,0,0,3,,,,,0,0,0,2,,,,,,,,691.8888053000001,692.5050394,0.6162340999999287,,,,,32,51:49,1,left,1,0.5927802999999585,None,,,,,,,,,Tokka,1 - without skip,"54:46, 51:49","2.5s, 2.0s",2023-07-20_14h33.55.870,Rewa's Exp,2023.1.2,59.99692815724245,
2,Countdown_2s.mp4,"[-1.0, 1.0, -1.0]",red,left,Countdown_2s.jpg,8,0,8,0,0,0,0,0,0,0,0,3,,,,,0,1,1,3,,,,,,,,696.4040091000002,697.0715530000002,0.6675439000000551,,,,,33,51:49,1,left,1,0.6370100999997703,None,,,,,,,,,Tokka,1 - without skip,"54:46, 51:49","2.5s, 2.0s",2023-07-20_14h33.55.870,Rewa's Exp,2023.1.2,59.99692815724245,
2,Countdown_2s.mp4,red,"[-1.0, 1.0, -1.0]",right,Countdown_2s.jpg,8,0,8,0,0,0,0,0,0,0,0,3,,,,,0,2,2,1,,,,,,,,700.9684400000001,701.6049680000001,0.6365279999999984,,,,,34,51:49,1,right,1,0.61652389999972,None,,,,,,,,,Tokka,1 - without skip,"54:46, 51:49","2.5s, 2.0s",2023-07-20_14h33.55.870,Rewa's Exp,2023.1.2,59.99692815724245,
2.5,Countdown_2.5s.mp4,red,"[-1.0, 1.0, -1.0]",right,Countdown_2.5s.jpg,8,0,8,0,0,0,0,0,0,0,0,3,,,,,0,3,3,0,,,,,,,,705.564648,706.4552081000002,0.8905601000001298,,,,,35,51:49,1,right,1,0.8597601000001305,None,,,,,,,,,Tokka,1 - without skip,"54:46, 51:49","2.5s, 2.0s",2023-07-20_14h33.55.870,Rewa's Exp,2023.1.2,59.99692815724245,
2,Countdown_2s.mp4,red,"[-1.0, 1.0, -1.0]",right,Countdown_2s.jpg,8,0,8,0,0,0,0,0,0,0,0,3,,,,,1,0,4,1,,,,,,,,710.3568761000001,710.9888734000001,0.6319972999999663,,,,,36,51:49,1,right,1,0.6045238000001518,None,,,,,,,,,Tokka,1 - without skip,"54:46, 51:49","2.5s, 2.0s",2023-07-20_14h33.55.870,Rewa's Exp,2023.1.2,59.99692815724245,
2,Countdown_2s.mp4,"[-1.0, 1.0, -1.0]",red,left,Countdown_2s.jpg,8,0,8,0,0,0,0,0,0,0,0,3,,,,,1,1,5,3,,,,,,,,714.9636651999999,715.8387910000001,0.8751258000002053,,,,,34,51:49,-2,right,0,0.8534852999996474,None,,,,,,,,,Tokka,1 - without skip,"54:46, 51:49","2.5s, 2.0s",2023-07-20_14h33.55.870,Rewa's Exp,2023.1.2,59.99692815724245,
2.5,Countdown_2.5s.mp4,red,"[-1.0, 1.0, -1.0]",right,Countdown_2.5s.jpg,8,0,8,0,0,0,0,0,0,0,0,3,,,,,1,2,6,0,,,,,,,,719.7951302000001,720.7220732000001,0.9269429999999375,,,,,32,51:49,-2,left,0,0.9023404999998093,None,,,,,,,,,Tokka,1 - without skip,"54:46, 51:49","2.5s, 2.0s",2023-07-20_14h33.55.870,Rewa's Exp,2023.1.2,59.99692815724245,
2.5,Countdown_2.5s.mp4,"[-1.0, 1.0, -1.0]",red,left,Countdown_2.5s.jpg,8,0,8,0,0,0,0,0,0,0,0,3,,,,,1,3,7,2,,,,,,,,724.6337311000002,725.2717081999999,0.6379770999997163,,,,,30,51:49,-2,right,0,0.6159911999998258,None,,,,,,,,,Tokka,1 - without skip,"54:46, 51:49","2.5s, 2.0s",2023-07-20_14h33.55.870,Rewa's Exp,2023.1.2,59.99692815724245,
2,Countdown_2s.mp4,"[-1.0, 1.0, -1.0]",red,left,Countdown_2s.jpg,8,0,8,0,0,0,0,0,0,0,0,3,,,,,,,,,,,,,,,,,,,,,,,,,,,,,,731.6511829000001,731.6511829000001,731.6511829000001,731.6511829000001,space,1.8653356999998323,,,Tokka,1 - without skip,"54:46, 51:49","2.5s, 2.0s",2023-07-20_14h33.55.870,Rewa's Exp,2023.1.2,59.99692815724245,
2,Countdown_2s.mp4,red,"[-1.0, 1.0, -1.0]",right,Countdown_2s.jpg,9,0,9,0,0,0,0,0,0,0,0,1,0,0,0,1,,,,,,,,,,,,731.0926941000002,731.7885512000003,0.695857100000012,right,1,0.6693006000000423,None,31,54:46,1,,,,,,,,,,,,,Tokka,1 - without skip,"54:46, 51:49","2.5s, 2.0s",2023-07-20_14h33.55.870,Rewa's Exp,2023.1.2,59.99692815724245,
2.5,Countdown_2.5s.mp4,"[-1.0, 1.0, -1.0]",red,left,Countdown_2.5s.jpg,9,0,9,0,0,0,0,0,0,0,0,1,0,1,1,2,,,,,,,,,,,,735.6866461,736.5718244999998,0.8851783999998588,left,1,0.8678537000000688,None,32,54:46,1,,,,,,,,,,,,,Tokka,1 - without skip,"54:46, 51:49","2.5s, 2.0s",2023-07-20_14h33.55.870,Rewa's Exp,2023.1.2,59.99692815724245,
2,Countdown_2s.mp4,"[-1.0, 1.0, -1.0]",red,left,Countdown_2s.jpg,9,0,9,0,0,0,0,0,0,0,0,1,0,2,2,3,,,,,,,,,,,,740.4815070999998,741.4219168,0.9404097000001457,left,1,0.9199264999997467,None,33,54:46,1,,,,,,,,,,,,,Tokka,1 - without skip,"54:46, 51:49","2.5s, 2.0s",2023-07-20_14h33.55.870,Rewa's Exp,2023.1.2,59.99692815724245,
2.5,Countdown_2.5s.mp4,red,"[-1.0, 1.0, -1.0]",right,Countdown_2.5s.jpg,9,0,9,0,0,0,0,0,0,0,0,1,0,3,3,0,,,,,,,,,,,,745.3164127,746.4551996,1.1387869000000137,left,0,1.1088927000000695,None,31,54:46,-2,,,,,,,,,,,,,Tokka,1 - without skip,"54:46, 51:49","2.5s, 2.0s",2023-07-20_14h33.55.870,Rewa's Exp,2023.1.2,59.99692815724245,
2.5,Countdown_2.5s.mp4,"[-1.0, 1.0, -1.0]",red,left,Countdown_2.5s.jpg,9,0,9,0,0,0,0,0,0,0,0,1,1,0,4,2,,,,,,,,,,,,750.3540782999999,751.4053090000002,1.0512307000003602,left,1,1.0238362999998571,None,32,54:46,1,,,,,,,,,,,,,Tokka,1 - without skip,"54:46, 51:49","2.5s, 2.0s",2023-07-20_14h33.55.870,Rewa's Exp,2023.1.2,59.99692815724245,
2.5,Countdown_2.5s.mp4,red,"[-1.0, 1.0, -1.0]",right,Countdown_2.5s.jpg,9,0,9,0,0,0,0,0,0,0,0,1,1,1,5,0,,,,,,,,,,,,755.3532205000001,756.3057810999999,0.9525605999997424,right,1,0.9287650999999641,None,33,54:46,1,,,,,,,,,,,,,Tokka,1 - without skip,"54:46, 51:49","2.5s, 2.0s",2023-07-20_14h33.55.870,Rewa's Exp,2023.1.2,59.99692815724245,
2,Countdown_2s.mp4,red,"[-1.0, 1.0, -1.0]",right,Countdown_2s.jpg,9,0,9,0,0,0,0,0,0,0,0,1,1,2,6,1,,,,,,,,,,,,760.2762665999999,761.0553908000002,0.7791242000002967,left,0,0.7489150000001246,None,31,54:46,-2,,,,,,,,,,,,,Tokka,1 - without skip,"54:46, 51:49","2.5s, 2.0s",2023-07-20_14h33.55.870,Rewa's Exp,2023.1.2,59.99692815724245,
2,Countdown_2s.mp4,"[-1.0, 1.0, -1.0]",red,left,Countdown_2s.jpg,9,0,9,0,0,0,0,0,0,0,0,1,1,3,7,3,,,,,,,,,,,,764.9649761999999,765.8220160999999,0.857039900000018,left,1,0.8371342999998888,None,32,54:46,1,,,,,,,,,,,,,Tokka,1 - without skip,"54:46, 51:49","2.5s, 2.0s",2023-07-20_14h33.55.870,Rewa's Exp,2023.1.2,59.99692815724245,
2.5,Countdown_2.5s.mp4,"[-1.0, 1.0, -1.0]",red,left,Countdown_2.5s.jpg,9,0,9,0,0,0,0,0,0,0,0,1,,,,,0,0,0,2,,,,,,,,769.7317051,770.5385249999999,0.8068198999999368,,,,,33,51:49,1,left,1,0.7899332000001777,None,,,,,,,,,Tokka,1 - without skip,"54:46, 51:49","2.5s, 2.0s",2023-07-20_14h33.55.870,Rewa's Exp,2023.1.2,59.99692815724245,
2,Countdown_2s.mp4,red,"[-1.0, 1.0, -1.0]",right,Countdown_2s.jpg,9,0,9,0,0,0,0,0,0,0,0,1,,,,,0,1,1,1,,,,,,,,774.4494957000002,775.4717746000001,1.0222788999999466,,,,,31,51:49,-2,left,0,0.9916349000000082,None,,,,,,,,,Tokka,1 - without skip,"54:46, 51:49","2.5s, 2.0s",2023-07-20_14h33.55.870,Rewa's Exp,2023.1.2,59.99692815724245,
2.5,Countdown_2.5s.mp4,red,"[-1.0, 1.0, -1.0]",right,Countdown_2.5s.jpg,9,0,9,0,0,0,0,0,0,0,0,1,,,,,0,2,2,0,,,,,,,,779.3708660000002,780.6059662000002,1.2351002000000335,,,,,29,51:49,-2,left,0,1.2072662000000491,None,,,,,,,,,Tokka,1 - without skip,"54:46, 51:49","2.5s, 2.0s",2023-07-20_14h33.55.870,Rewa's Exp,2023.1.2,59.99692815724245,
2,Countdown_2s.mp4,"[-1.0, 1.0, -1.0]",red,left,Countdown_2s.jpg,9,0,9,0,0,0,0,0,0,0,0,1,,,,,0,3,3,3,,,,,,,,784.5649128,785.4885121000002,0.9235993000002054,,,,,30,51:49,1,left,1,0.8923651000000064,None,,,,,,,,,Tokka,1 - without skip,"54:46, 51:49","2.5s, 2.0s",2023-07-20_14h33.55.870,Rewa's Exp,2023.1.2,59.99692815724245,
2.5,Countdown_2.5s.mp4,"[-1.0, 1.0, -1.0]",red,left,Countdown_2.5s.jpg,9,0,9,0,0,0,0,0,0,0,0,1,,,,,1,0,4,2,,,,,,,,789.4111684,790.6055731000001,1.1944047000001774,,,,,28,51:49,-2,right,0,1.166324799999984,None,,,,,,,,,Tokka,1 - without skip,"54:46, 51:49","2.5s, 2.0s",2023-07-20_14h33.55.870,Rewa's Exp,2023.1.2,59.99692815724245,
2,Countdown_2s.mp4,"[-1.0, 1.0, -1.0]",red,left,Countdown_2s.jpg,9,0,9,0,0,0,0,0,0,0,0,1,,,,,1,1,5,3,,,,,,,,794.5163295000002,795.338749,0.8224194999997962,,,,,29,51:49,1,left,1,0.78994560000001,None,,,,,,,,,Tokka,1 - without skip,"54:46, 51:49","2.5s, 2.0s",2023-07-20_14h33.55.870,Rewa's Exp,2023.1.2,59.99692815724245,
2,Countdown_2s.mp4,red,"[-1.0, 1.0, -1.0]",right,Countdown_2s.jpg,9,0,9,0,0,0,0,0,0,0,0,1,,,,,1,2,6,1,,,,,,,,799.2270555999999,799.9217306999999,0.6946751000000404,,,,,30,51:49,1,right,1,0.6697862999999415,None,,,,,,,,,Tokka,1 - without skip,"54:46, 51:49","2.5s, 2.0s",2023-07-20_14h33.55.870,Rewa's Exp,2023.1.2,59.99692815724245,
2.5,Countdown_2.5s.mp4,red,"[-1.0, 1.0, -1.0]",right,Countdown_2.5s.jpg,9,0,9,0,0,0,0,0,0,0,0,1,,,,,1,3,7,0,,,,,,,,803.8249657000001,805.0718511,1.2468853999998828,,,,,28,51:49,-2,left,0,1.2247440999999526,None,,,,,,,,,Tokka,1 - without skip,"54:46, 51:49","2.5s, 2.0s",2023-07-20_14h33.55.870,Rewa's Exp,2023.1.2,59.99692815724245,
2,Countdown_2s.mp4,red,"[-1.0, 1.0, -1.0]",right,Countdown_2s.jpg,9,0,9,0,0,0,0,0,0,0,0,1,,,,,,,,,,,,,,,,,,,,,,,,,,,,,,811.4513366000001,811.4513366000001,811.4513366000001,811.4513366000001,space,2.104310499999883,,,Tokka,1 - without skip,"54:46, 51:49","2.5s, 2.0s",2023-07-20_14h33.55.870,Rewa's Exp,2023.1.2,59.99692815724245,
2,Countdown_2s.mp4,"[-1.0, 1.0, -1.0]",red,left,Countdown_2s.jpg,10,0,10,0,0,0,0,1,0,0,0,0,0,0,0,3,,,,,,,,,,,,811.1445720000002,811.8720294999998,0.727457499999673,left,1,0.7049063999997998,None,29,54:46,1,,,,,,,,,,,,,Tokka,1 - without skip,"54:46, 51:49","2.5s, 2.0s",2023-07-20_14h33.55.870,Rewa's Exp,2023.1.2,59.99692815724245,
2.5,Countdown_2.5s.mp4,red,"[-1.0, 1.0, -1.0]",right,Countdown_2.5s.jpg,10,0,10,0,0,0,0,1,0,0,0,0,0,1,1,0,,,,,,,,,,,,815.7916525,816.6233625,0.83170999999993,right,1,0.8014919999995982,None,30,54:46,1,,,,,,,,,,,,,Tokka,1 - without skip,"54:46, 51:49","2.5s, 2.0s",2023-07-20_14h33.55.870,Rewa's Exp,2023.1.2,59.99692815724245,
2,Countdown_2s.mp4,red,"[-1.0, 1.0, -1.0]",right,Countdown_2s.jpg,10,0,10,0,0,0,0,1,0,0,0,0,0,2,2,1,,,,,,,,,,,,820.5570745,821.3054532000001,0.748378700000103,left,0,0.7248671000002105,None,28,54:46,-2,,,,,,,,,,,,,Tokka,1 - without skip,"54:46, 51:49","2.5s, 2.0s",2023-07-20_14h33.55.870,Rewa's Exp,2023.1.2,59.99692815724245,
2.5,Countdown_2.5s.mp4,"[-1.0, 1.0, -1.0]",red,left,Countdown_2.5s.jpg,10,0,10,0,0,0,0,1,0,0,0,0,0,3,3,2,,,,,,,,,,,,825.2251517999998,825.8885705000002,0.6634187000004204,left,1,0.6401740999999674,None,29,54:46,1,,,,,,,,,,,,,Tokka,1 - without skip,"54:46, 51:49","2.5s, 2.0s",2023-07-20_14h33.55.870,Rewa's Exp,2023.1.2,59.99692815724245,
2.5,Countdown_2.5s.mp4,"[-1.0, 1.0, -1.0]",red,left,Countdown_2.5s.jpg,10,0,10,0,0,0,0,1,0,0,0,0,1,0,4,2,,,,,,,,,,,,829.7814214999999,830.9055054999999,1.124084000000039,left,1,1.1013957999998638,None,30,54:46,1,,,,,,,,,,,,,Tokka,1 - without skip,"54:46, 51:49","2.5s, 2.0s",2023-07-20_14h33.55.870,Rewa's Exp,2023.1.2,59.99692815724245,
2.5,Countdown_2.5s.mp4,red,"[-1.0, 1.0, -1.0]",right,Countdown_2.5s.jpg,10,0,10,0,0,0,0,1,0,0,0,0,1,1,5,0,,,,,,,,,,,,834.8085873999999,835.6401718000002,0.8315844000003381,left,0,0.8008924000000661,None,28,54:46,-2,,,,,,,,,,,,,Tokka,1 - without skip,"54:46, 51:49","2.5s, 2.0s",2023-07-20_14h33.55.870,Rewa's Exp,2023.1.2,59.99692815724245,
2,Countdown_2s.mp4,red,"[-1.0, 1.0, -1.0]",right,Countdown_2s.jpg,10,0,10,0,0,0,0,1,0,0,0,0,1,2,6,1,,,,,,,,,,,,839.5669947000001,840.3720223,0.805027599999903,right,1,0.7877031999996689,None,29,54:46,1,,,,,,,,,,,,,Tokka,1 - without skip,"54:46, 51:49","2.5s, 2.0s",2023-07-20_14h33.55.870,Rewa's Exp,2023.1.2,59.99692815724245,
2,Countdown_2s.mp4,"[-1.0, 1.0, -1.0]",red,left,Countdown_2s.jpg,10,0,10,0,0,0,0,1,0,0,0,0,1,3,7,3,,,,,,,,,,,,844.2770046999999,845.0389519999999,0.7619472999999743,right,0,0.7317976999997882,None,27,54:46,-2,,,,,,,,,,,,,Tokka,1 - without skip,"54:46, 51:49","2.5s, 2.0s",2023-07-20_14h33.55.870,Rewa's Exp,2023.1.2,59.99692815724245,
2,Countdown_2s.mp4,red,"[-1.0, 1.0, -1.0]",right,Countdown_2s.jpg,10,0,10,0,0,0,0,1,0,0,0,0,,,,,0,0,0,1,,,,,,,,848.9622023000002,849.7560238000001,0.7938214999999218,,,,,25,51:49,-2,left,0,0.7755672999996932,None,,,,,,,,,Tokka,1 - without skip,"54:46, 51:49","2.5s, 2.0s",2023-07-20_14h33.55.870,Rewa's Exp,2023.1.2,59.99692815724245,
2,Countdown_2s.mp4,"[-1.0, 1.0, -1.0]",red,left,Countdown_2s.jpg,10,0,10,0,0,0,0,1,0,0,0,0,,,,,0,1,1,3,,,,,,,,853.6638074000002,854.7053916,1.041584199999761,,,,,26,51:49,1,left,1,1.0174684999997226,None,,,,,,,,,Tokka,1 - without skip,"54:46, 51:49","2.5s, 2.0s",2023-07-20_14h33.55.870,Rewa's Exp,2023.1.2,59.99692815724245,
2.5,Countdown_2.5s.mp4,"[-1.0, 1.0, -1.0]",red,left,Countdown_2.5s.jpg,10,0,10,0,0,0,0,1,0,0,0,0,,,,,0,2,2,2,,,,,,,,858.6293467,859.5555047000003,0.9261580000002141,,,,,27,51:49,1,left,1,0.9088518999997177,None,,,,,,,,,Tokka,1 - without skip,"54:46, 51:49","2.5s, 2.0s",2023-07-20_14h33.55.870,Rewa's Exp,2023.1.2,59.99692815724245,
2.5,Countdown_2.5s.mp4,red,"[-1.0, 1.0, -1.0]",right,Countdown_2.5s.jpg,10,0,10,0,0,0,0,1,0,0,0,0,,,,,0,3,3,0,,,,,,,,863.4615607999999,864.2217424999999,0.7601816999999755,,,,,28,51:49,1,right,1,0.7412340999999287,None,,,,,,,,,Tokka,1 - without skip,"54:46, 51:49","2.5s, 2.0s",2023-07-20_14h33.55.870,Rewa's Exp,2023.1.2,59.99692815724245,
2.5,Countdown_2.5s.mp4,"[-1.0, 1.0, -1.0]",red,left,Countdown_2.5s.jpg,10,0,10,0,0,0,0,1,0,0,0,0,,,,,1,0,4,2,,,,,,,,868.1389264,868.9551412999999,0.8162148999999772,,,,,29,51:49,1,left,1,0.7990786000000298,None,,,,,,,,,Tokka,1 - without skip,"54:46, 51:49","2.5s, 2.0s",2023-07-20_14h33.55.870,Rewa's Exp,2023.1.2,59.99692815724245,
2,Countdown_2s.mp4,"[-1.0, 1.0, -1.0]",red,left,Countdown_2s.jpg,10,0,10,0,0,0,0,1,0,0,0,0,,,,,1,1,5,3,,,,,,,,872.8548599000001,873.8057855000002,0.9509256000001187,,,,,30,51:49,1,left,1,0.930067599999802,None,,,,,,,,,Tokka,1 - without skip,"54:46, 51:49","2.5s, 2.0s",2023-07-20_14h33.55.870,Rewa's Exp,2023.1.2,59.99692815724245,
2.5,Countdown_2.5s.mp4,red,"[-1.0, 1.0, -1.0]",right,Countdown_2.5s.jpg,10,0,10,0,0,0,0,1,0,0,0,0,,,,,1,2,6,0,,,,,,,,877.7333275000001,878.9221010000001,1.1887735000000248,,,,,31,51:49,1,right,1,1.1649822999997923,None,,,,,,,,,Tokka,1 - without skip,"54:46, 51:49","2.5s, 2.0s",2023-07-20_14h33.55.870,Rewa's Exp,2023.1.2,59.99692815724245,
2,Countdown_2s.mp4,red,"[-1.0, 1.0, -1.0]",right,Countdown_2s.jpg,10,0,10,0,0,0,0,1,0,0,0,0,,,,,1,3,7,1,,,,,,,,882.8488124,883.6893946,0.8405821999999716,,,,,29,51:49,-2,left,0,0.8080258999998478,None,,,,,,,,,Tokka,1 - without skip,"54:46, 51:49","2.5s, 2.0s",2023-07-20_14h33.55.870,Rewa's Exp,2023.1.2,59.99692815724245,
2.5,Countdown_2.5s.mp4,red,"[-1.0, 1.0, -1.0]",right,Countdown_2.5s.jpg,10,0,10,0,0,0,0,1,0,0,0,0,,,,,,,,,,,,,,,,,,,,,,,,,,,,,,890.0681193,890.0681193,890.0681193,890.0681193,space,1.7291111999998066,,,Tokka,1 - without skip,"54:46, 51:49","2.5s, 2.0s",2023-07-20_14h33.55.870,Rewa's Exp,2023.1.2,59.99692815724245,
2.5,Countdown_2.5s.mp4,"[-1.0, 1.0, -1.0]",red,left,Countdown_2.5s.jpg,11,0,11,0,0,0,0,0,0,0,0,0,0,0,0,2,,,,,,,,,,,,889.3590770000001,890.2056745999998,0.8465975999997681,left,1,0.8258088999996289,None,30,54:46,1,,,,,,,,,,,,,Tokka,1 - without skip,"54:46, 51:49","2.5s, 2.0s",2023-07-20_14h33.55.870,Rewa's Exp,2023.1.2,59.99692815724245,
2,Countdown_2s.mp4,"[-1.0, 1.0, -1.0]",red,left,Countdown_2s.jpg,11,0,11,0,0,0,0,0,0,0,0,0,0,1,1,3,,,,,,,,,,,,894.1123876000001,894.9223553000002,0.8099677000000156,left,1,0.7850312999999005,None,31,54:46,1,,,,,,,,,,,,,Tokka,1 - without skip,"54:46, 51:49","2.5s, 2.0s",2023-07-20_14h33.55.870,Rewa's Exp,2023.1.2,59.99692815724245,
2.5,Countdown_2.5s.mp4,red,"[-1.0, 1.0, -1.0]",right,Countdown_2.5s.jpg,11,0,11,0,0,0,0,0,0,0,0,0,0,2,2,0,,,,,,,,,,,,898.8643464000002,899.5394646999998,0.6751182999996672,right,1,0.6418917000000874,None,32,54:46,1,,,,,,,,,,,,,Tokka,1 - without skip,"54:46, 51:49","2.5s, 2.0s",2023-07-20_14h33.55.870,Rewa's Exp,2023.1.2,59.99692815724245,
2,Countdown_2s.mp4,red,"[-1.0, 1.0, -1.0]",right,Countdown_2s.jpg,11,0,11,0,0,0,0,0,0,0,0,0,0,3,3,1,,,,,,,,,,,,903.5083346000001,904.3056531000002,0.797318500000074,left,0,0.7734581999998227,None,30,54:46,-2,,,,,,,,,,,,,Tokka,1 - without skip,"54:46, 51:49","2.5s, 2.0s",2023-07-20_14h33.55.870,Rewa's Exp,2023.1.2,59.99692815724245,
2,Countdown_2s.mp4,"[-1.0, 1.0, -1.0]",red,left,Countdown_2s.jpg,11,0,11,0,0,0,0,0,0,0,0,0,1,0,4,3,,,,,,,,,,,,908.2187804,909.0054375,0.7866570999999567,left,1,0.758920499999931,None,31,54:46,1,,,,,,,,,,,,,Tokka,1 - without skip,"54:46, 51:49","2.5s, 2.0s",2023-07-20_14h33.55.870,Rewa's Exp,2023.1.2,59.99692815724245,
2.5,Countdown_2.5s.mp4,red,"[-1.0, 1.0, -1.0]",right,Countdown_2.5s.jpg,11,0,11,0,0,0,0,0,0,0,0,0,1,1,5,0,,,,,,,,,,,,912.9372852000001,914.0389187999999,1.1016335999997864,right,1,1.0719927000000098,None,32,54:46,1,,,,,,,,,,,,,Tokka,1 - without skip,"54:46, 51:49","2.5s, 2.0s",2023-07-20_14h33.55.870,Rewa's Exp,2023.1.2,59.99692815724245,
2.5,Countdown_2.5s.mp4,"[-1.0, 1.0, -1.0]",red,left,Countdown_2.5s.jpg,11,0,11,0,0,0,0,0,0,0,0,0,1,2,6,2,,,,,,,,,,,,917.9199395999999,918.6221915000001,0.7022519000001921,left,1,0.6728317999995852,None,33,54:46,1,,,,,,,,,,,,,Tokka,1 - without skip,"54:46, 51:49","2.5s, 2.0s",2023-07-20_14h33.55.870,Rewa's Exp,2023.1.2,59.99692815724245,
2,Countdown_2s.mp4,red,"[-1.0, 1.0, -1.0]",right,Countdown_2s.jpg,11,0,11,0,0,0,0,0,0,0,0,0,1,3,7,1,,,,,,,,,,,,922.5181582999999,923.4889505000001,0.9707922000002327,right,1,0.9386798000000454,None,34,54:46,1,,,,,,,,,,,,,Tokka,1 - without skip,"54:46, 51:49","2.5s, 2.0s",2023-07-20_14h33.55.870,Rewa's Exp,2023.1.2,59.99692815724245,
2,Countdown_2s.mp4,red,"[-1.0, 1.0, -1.0]",right,Countdown_2s.jpg,11,0,11,0,0,0,0,0,0,0,0,0,,,,,0,0,0,1,,,,,,,,927.4018168000002,928.5387787,1.1369618999997329,,,,,35,51:49,1,right,1,1.10429189999968,None,,,,,,,,,Tokka,1 - without skip,"54:46, 51:49","2.5s, 2.0s",2023-07-20_14h33.55.870,Rewa's Exp,2023.1.2,59.99692815724245,
2.5,Countdown_2.5s.mp4,"[-1.0, 1.0, -1.0]",red,left,Countdown_2.5s.jpg,11,0,11,0,0,0,0,0,0,0,0,0,,,,,0,1,1,2,,,,,,,,932.4347971000002,933.5556425,1.12084539999978,,,,,36,51:49,1,left,1,1.0959322999997312,None,,,,,,,,,Tokka,1 - without skip,"54:46, 51:49","2.5s, 2.0s",2023-07-20_14h33.55.870,Rewa's Exp,2023.1.2,59.99692815724245,
2.5,Countdown_2.5s.mp4,red,"[-1.0, 1.0, -1.0]",right,Countdown_2.5s.jpg,11,0,11,0,0,0,0,0,0,0,0,0,,,,,0,2,2,0,,,,,,,,937.4697958000002,938.422975,0.953179199999795,,,,,37,51:49,1,right,1,0.9238205999995444,None,,,,,,,,,Tokka,1 - without skip,"54:46, 51:49","2.5s, 2.0s",2023-07-20_14h33.55.870,Rewa's Exp,2023.1.2,59.99692815724245,
2,Countdown_2s.mp4,"[-1.0, 1.0, -1.0]",red,left,Countdown_2s.jpg,11,0,11,0,0,0,0,0,0,0,0,0,,,,,0,3,3,3,,,,,,,,942.3486289000002,943.105481,0.7568520999998327,,,,,35,51:49,-2,right,0,0.724802599999748,None,,,,,,,,,Tokka,1 - without skip,"54:46, 51:49","2.5s, 2.0s",2023-07-20_14h33.55.870,Rewa's Exp,2023.1.2,59.99692815724245,
2.5,Countdown_2.5s.mp4,red,"[-1.0, 1.0, -1.0]",right,Countdown_2.5s.jpg,11,0,11,0,0,0,0,0,0,0,0,0,,,,,1,0,4,0,,,,,,,,947.0707335000002,948.2554696000002,1.1847361000000092,,,,,36,51:49,1,right,1,1.1548548000000665,None,,,,,,,,,Tokka,1 - without skip,"54:46, 51:49","2.5s, 2.0s",2023-07-20_14h33.55.870,Rewa's Exp,2023.1.2,59.99692815724245,
2.5,Countdown_2.5s.mp4,"[-1.0, 1.0, -1.0]",red,left,Countdown_2.5s.jpg,11,0,11,0,0,0,0,0,0,0,0,0,,,,,1,1,5,2,,,,,,,,952.1533447000002,952.8892153000002,0.7358705999999984,,,,,37,51:49,1,left,1,0.7120931999997993,None,,,,,,,,,Tokka,1 - without skip,"54:46, 51:49","2.5s, 2.0s",2023-07-20_14h33.55.870,Rewa's Exp,2023.1.2,59.99692815724245,
2,Countdown_2s.mp4,"[-1.0, 1.0, -1.0]",red,left,Countdown_2s.jpg,11,0,11,0,0,0,0,0,0,0,0,0,,,,,1,2,6,3,,,,,,,,956.7934602,957.6056128999999,0.8121526999998423,,,,,35,51:49,-2,right,0,0.7836354000000938,None,,,,,,,,,Tokka,1 - without skip,"54:46, 51:49","2.5s, 2.0s",2023-07-20_14h33.55.870,Rewa's Exp,2023.1.2,59.99692815724245,
2,Countdown_2s.mp4,red,"[-1.0, 1.0, -1.0]",right,Countdown_2s.jpg,11,0,11,0,0,0,0,0,0,0,0,0,,,,,1,3,7,1,,,,,,,,961.5544559999998,962.3222323999998,0.7677764000000025,,,,,33,51:49,-2,left,0,0.7435335000000123,None,,,,,,,,,Tokka,1 - without skip,"54:46, 51:49","2.5s, 2.0s",2023-07-20_14h33.55.870,Rewa's Exp,2023.1.2,59.99692815724245,
2.5,Countdown_2.5s.mp4,red,"[-1.0, 1.0, -1.0]",right,Countdown_2.5s.jpg,11,0,11,0,0,0,0,0,0,0,0,0,,,,,,,,,,,,,,,,,,,,,,,,,,,,,,968.6847648000003,968.6847648000003,968.6847648000003,968.6847648000003,space,1.655880299999808,,,Tokka,1 - without skip,"54:46, 51:49","2.5s, 2.0s",2023-07-20_14h33.55.870,Rewa's Exp,2023.1.2,59.99692815724245,
2.5,Countdown_2.5s.mp4,red,"[-1.0, 1.0, -1.0]",right,Countdown_2.5s.jpg,12,0,12,0,0,0,0,0,0,0,0,2,0,0,0,0,,,,,,,,,,,,967.9253764,969.0722266000002,1.1468502000002445,right,1,1.1153822999999647,None,34,54:46,1,,,,,,,,,,,,,Tokka,1 - without skip,"54:46, 51:49","2.5s, 2.0s",2023-07-20_14h33.55.870,Rewa's Exp,2023.1.2,59.99692815724245,
2,Countdown_2s.mp4,red,"[-1.0, 1.0, -1.0]",right,Countdown_2s.jpg,12,0,12,0,0,0,0,0,0,0,0,2,0,1,1,1,,,,,,,,,,,,973.0068440999999,973.812343,0.8054989000002024,right,1,0.7785264999997707,None,35,54:46,1,,,,,,,,,,,,,Tokka,1 - without skip,"54:46, 51:49","2.5s, 2.0s",2023-07-20_14h33.55.870,Rewa's Exp,2023.1.2,59.99692815724245,
2.5,Countdown_2.5s.mp4,"[-1.0, 1.0, -1.0]",red,left,Countdown_2.5s.jpg,12,0,12,0,0,0,0,0,0,0,0,2,0,2,2,2,,,,,,,,,,,,977.7093785000002,978.4916680000001,0.7822894999999335,left,1,0.7555148000001282,None,36,54:46,1,,,,,,,,,,,,,Tokka,1 - without skip,"54:46, 51:49","2.5s, 2.0s",2023-07-20_14h33.55.870,Rewa's Exp,2023.1.2,59.99692815724245,
2,Countdown_2s.mp4,"[-1.0, 1.0, -1.0]",red,left,Countdown_2s.jpg,12,0,12,0,0,0,0,0,0,0,0,2,0,3,3,3,,,,,,,,,,,,982.4211141000001,983.322494,0.9013798999999381,left,1,0.8686914999998407,None,37,54:46,1,,,,,,,,,,,,,Tokka,1 - without skip,"54:46, 51:49","2.5s, 2.0s",2023-07-20_14h33.55.870,Rewa's Exp,2023.1.2,59.99692815724245,
2,Countdown_2s.mp4,red,"[-1.0, 1.0, -1.0]",right,Countdown_2s.jpg,12,0,12,0,0,0,0,0,0,0,0,2,1,0,4,1,,,,,,,,,,,,987.2267132000002,987.9058751000002,0.6791619000000537,right,1,0.6551263999999719,None,38,54:46,1,,,,,,,,,,,,,Tokka,1 - without skip,"54:46, 51:49","2.5s, 2.0s",2023-07-20_14h33.55.870,Rewa's Exp,2023.1.2,59.99692815724245,
2.5,Countdown_2.5s.mp4,red,"[-1.0, 1.0, -1.0]",right,Countdown_2.5s.jpg,12,0,12,0,0,0,0,0,0,0,0,2,1,1,5,0,,,,,,,,,,,,991.8284939,992.555867,0.7273731000000225,right,1,0.7101351000001159,None,39,54:46,1,,,,,,,,,,,,,Tokka,1 - without skip,"54:46, 51:49","2.5s, 2.0s",2023-07-20_14h33.55.870,Rewa's Exp,2023.1.2,59.99692815724245,
2,Countdown_2s.mp4,"[-1.0, 1.0, -1.0]",red,left,Countdown_2s.jpg,12,0,12,0,0,0,0,0,0,0,0,2,1,2,6,3,,,,,,,,,,,,996.4672415,997.2225672,0.7553256999999576,left,1,0.7262442000001101,None,40,54:46,1,,,,,,,,,,,,,Tokka,1 - without skip,"54:46, 51:49","2.5s, 2.0s",2023-07-20_14h33.55.870,Rewa's Exp,2023.1.2,59.99692815724245,
2.5,Countdown_2.5s.mp4,"[-1.0, 1.0, -1.0]",red,left,Countdown_2.5s.jpg,12,0,12,0,0,0,0,0,0,0,0,2,1,3,7,2,,,,,,,,,,,,1001.1785169,1002.0899376000002,0.9114207000002352,left,1,0.8870310999996036,None,41,54:46,1,,,,,,,,,,,,,Tokka,1 - without skip,"54:46, 51:49","2.5s, 2.0s",2023-07-20_14h33.55.870,Rewa's Exp,2023.1.2,59.99692815724245,
2.5,Countdown_2.5s.mp4,red,"[-1.0, 1.0, -1.0]",right,Countdown_2.5s.jpg,12,0,12,0,0,0,0,0,0,0,0,2,,,,,0,0,0,0,,,,,,,,1006.0397582999999,1006.8224067000001,0.7826484000001983,,,,,42,51:49,1,right,1,0.7530643999998574,None,,,,,,,,,Tokka,1 - without skip,"54:46, 51:49","2.5s, 2.0s",2023-07-20_14h33.55.870,Rewa's Exp,2023.1.2,59.99692815724245,
2,Countdown_2s.mp4,red,"[-1.0, 1.0, -1.0]",right,Countdown_2s.jpg,12,0,12,0,0,0,0,0,0,0,0,2,,,,,0,1,1,1,,,,,,,,1010.6922187,1011.6064216,0.9142028999999638,,,,,40,51:49,-2,left,0,0.8928701999998339,None,,,,,,,,,Tokka,1 - without skip,"54:46, 51:49","2.5s, 2.0s",2023-07-20_14h33.55.870,Rewa's Exp,2023.1.2,59.99692815724245,
2.5,Countdown_2.5s.mp4,"[-1.0, 1.0, -1.0]",red,left,Countdown_2.5s.jpg,12,0,12,0,0,0,0,0,0,0,0,2,,,,,0,2,2,2,,,,,,,,1015.5402007000002,1016.8391913,1.2989905999997973,,,,,38,51:49,-2,right,0,1.2691381999998157,None,,,,,,,,,Tokka,1 - without skip,"54:46, 51:49","2.5s, 2.0s",2023-07-20_14h33.55.870,Rewa's Exp,2023.1.2,59.99692815724245,
2,Countdown_2s.mp4,"[-1.0, 1.0, -1.0]",red,left,Countdown_2s.jpg,12,0,12,0,0,0,0,0,0,0,0,2,,,,,0,3,3,3,,,,,,,,1020.7524084000001,1021.5722652,0.8198567999997977,,,,,39,51:49,1,left,1,0.8009680999998636,None,,,,,,,,,Tokka,1 - without skip,"54:46, 51:49","2.5s, 2.0s",2023-07-20_14h33.55.870,Rewa's Exp,2023.1.2,59.99692815724245,
2,Countdown_2s.mp4,"[-1.0, 1.0, -1.0]",red,left,Countdown_2s.jpg,12,0,12,0,0,0,0,0,0,0,0,2,,,,,1,0,4,3,,,,,,,,1025.4719212,1026.4056592000002,0.9337380000001758,,,,,40,51:49,1,left,1,0.9050483999999415,None,,,,,,,,,Tokka,1 - without skip,"54:46, 51:49","2.5s, 2.0s",2023-07-20_14h33.55.870,Rewa's Exp,2023.1.2,59.99692815724245,
2.5,Countdown_2.5s.mp4,red,"[-1.0, 1.0, -1.0]",right,Countdown_2.5s.jpg,12,0,12,0,0,0,0,0,0,0,0,2,,,,,1,1,5,0,,,,,,,,1030.3558894000003,1031.4557057000002,1.0998162999999295,,,,,38,51:49,-2,left,0,1.0700567999997475,None,,,,,,,,,Tokka,1 - without skip,"54:46, 51:49","2.5s, 2.0s",2023-07-20_14h33.55.870,Rewa's Exp,2023.1.2,59.99692815724245,
2.5,Countdown_2.5s.mp4,"[-1.0, 1.0, -1.0]",red,left,Countdown_2.5s.jpg,12,0,12,0,0,0,0,0,0,0,0,2,,,,,1,2,6,2,,,,,,,,1035.3796778,1036.3891781000002,1.009500300000127,,,,,39,51:49,1,left,1,0.9899184999999306,None,,,,,,,,,Tokka,1 - without skip,"54:46, 51:49","2.5s, 2.0s",2023-07-20_14h33.55.870,Rewa's Exp,2023.1.2,59.99692815724245,
2,Countdown_2s.mp4,red,"[-1.0, 1.0, -1.0]",right,Countdown_2s.jpg,12,0,12,0,0,0,0,0,0,0,0,2,,,,,1,3,7,1,,,,,,,,1040.2952451,1040.9722983000001,0.6770532000000458,,,,,40,51:49,1,right,1,0.6588693999997304,None,,,,,,,,,Tokka,1 - without skip,"54:46, 51:49","2.5s, 2.0s",2023-07-20_14h33.55.870,Rewa's Exp,2023.1.2,59.99692815724245,
2.5,Countdown_2.5s.mp4,"[-1.0, 1.0, -1.0]",red,left,Countdown_2.5s.jpg,12,0,12,0,0,0,0,0,0,0,0,2,,,,,,,,,,,,,,,,,,,,,,,,,,,,,,1047.3530141,1047.3530141,1047.3530141,1047.3530141,space,2.131728799999564,,,Tokka,1 - without skip,"54:46, 51:49","2.5s, 2.0s",2023-07-20_14h33.55.870,Rewa's Exp,2023.1.2,59.99692815724245,
2.5,Countdown_2.5s.mp4,red,"[-1.0, 1.0, -1.0]",right,Countdown_2.5s.jpg,13,0,13,0,0,0,0,1,0,0,0,1,0,0,0,0,,,,,,,,,,,,1047.0654227,1048.0227826,0.9573599000000286,right,1,0.9363572000002023,None,41,54:46,1,,,,,,,,,,,,,Tokka,1 - without skip,"54:46, 51:49","2.5s, 2.0s",2023-07-20_14h33.55.870,Rewa's Exp,2023.1.2,59.99692815724245,
2.5,Countdown_2.5s.mp4,"[-1.0, 1.0, -1.0]",red,left,Countdown_2.5s.jpg,13,0,13,0,0,0,0,1,0,0,0,1,0,1,1,2,,,,,,,,,,,,1051.9800175999999,1052.7734702000002,0.7934526000003643,left,1,0.7743172000000413,None,42,54:46,1,,,,,,,,,,,,,Tokka,1 - without skip,"54:46, 51:49","2.5s, 2.0s",2023-07-20_14h33.55.870,Rewa's Exp,2023.1.2,59.99692815724245,
2,Countdown_2s.mp4,"[-1.0, 1.0, -1.0]",red,left,Countdown_2s.jpg,13,0,13,0,0,0,0,1,0,0,0,1,0,2,2,3,,,,,,,,,,,,1056.7325045000002,1057.5725896,0.8400850999996692,left,1,0.8217798999999104,None,43,54:46,1,,,,,,,,,,,,,Tokka,1 - without skip,"54:46, 51:49","2.5s, 2.0s",2023-07-20_14h33.55.870,Rewa's Exp,2023.1.2,59.99692815724245,
2,Countdown_2s.mp4,red,"[-1.0, 1.0, -1.0]",right,Countdown_2s.jpg,13,0,13,0,0,0,0,1,0,0,0,1,0,3,3,1,,,,,,,,,,,,1061.4876613000001,1062.3058869000001,0.8182256000000052,right,1,0.7933974000002308,None,44,54:46,1,,,,,,,,,,,,,Tokka,1 - without skip,"54:46, 51:49","2.5s, 2.0s",2023-07-20_14h33.55.870,Rewa's Exp,2023.1.2,59.99692815724245,
2.5,Countdown_2.5s.mp4,red,"[-1.0, 1.0, -1.0]",right,Countdown_2.5s.jpg,13,0,13,0,0,0,0,1,0,0,0,1,1,0,4,0,,,,,,,,,,,,1066.2049363,1067.0558701,0.8509337999998934,left,0,0.8301824999998644,None,42,54:46,-2,,,,,,,,,,,,,Tokka,1 - without skip,"54:46, 51:49","2.5s, 2.0s",2023-07-20_14h33.55.870,Rewa's Exp,2023.1.2,59.99692815724245,
2.5,Countdown_2.5s.mp4,"[-1.0, 1.0, -1.0]",red,left,Countdown_2.5s.jpg,13,0,13,0,0,0,0,1,0,0,0,1,1,1,5,2,,,,,,,,,,,,1071.0081096,1071.7057837000002,0.697674100000313,left,1,0.6654521999998906,None,43,54:46,1,,,,,,,,,,,,,Tokka,1 - without skip,"54:46, 51:49","2.5s, 2.0s",2023-07-20_14h33.55.870,Rewa's Exp,2023.1.2,59.99692815724245,
2,Countdown_2s.mp4,"[-1.0, 1.0, -1.0]",red,left,Countdown_2s.jpg,13,0,13,0,0,0,0,1,0,0,0,1,1,2,6,3,,,,,,,,,,,,1075.6061052999999,1076.4892411,0.8831358000002183,left,1,0.8513620999997329,None,44,54:46,1,,,,,,,,,,,,,Tokka,1 - without skip,"54:46, 51:49","2.5s, 2.0s",2023-07-20_14h33.55.870,Rewa's Exp,2023.1.2,59.99692815724245,
2,Countdown_2s.mp4,red,"[-1.0, 1.0, -1.0]",right,Countdown_2s.jpg,13,0,13,0,0,0,0,1,0,0,0,1,1,3,7,1,,,,,,,,,,,,1080.4149724,1081.0725848000002,0.6576124000002892,right,1,0.6344119000000319,None,45,54:46,1,,,,,,,,,,,,,Tokka,1 - without skip,"54:46, 51:49","2.5s, 2.0s",2023-07-20_14h33.55.870,Rewa's Exp,2023.1.2,59.99692815724245,
2,Countdown_2s.mp4,"[-1.0, 1.0, -1.0]",red,left,Countdown_2s.jpg,13,0,13,0,0,0,0,1,0,0,0,1,,,,,0,0,0,3,,,,,,,,1084.9926157,1085.7396871,0.7470714000000953,,,,,46,51:49,1,left,1,0.7220899999997528,None,,,,,,,,,Tokka,1 - without skip,"54:46, 51:49","2.5s, 2.0s",2023-07-20_14h33.55.870,Rewa's Exp,2023.1.2,59.99692815724245,
2.5,Countdown_2.5s.mp4,"[-1.0, 1.0, -1.0]",red,left,Countdown_2.5s.jpg,13,0,13,0,0,0,0,1,0,0,0,1,,,,,0,1,1,2,,,,,,,,1089.6760149000002,1090.9057456,1.229730699999891,,,,,44,51:49,-2,right,0,1.197434499999872,None,,,,,,,,,Tokka,1 - without skip,"54:46, 51:49","2.5s, 2.0s",2023-07-20_14h33.55.870,Rewa's Exp,2023.1.2,59.99692815724245,
2,Countdown_2s.mp4,red,"[-1.0, 1.0, -1.0]",right,Countdown_2s.jpg,13,0,13,0,0,0,0,1,0,0,0,1,,,,,0,2,2,1,,,,,,,,1094.8396916000002,1095.5391046,0.6994129999998222,,,,,42,51:49,-2,left,0,0.6743569999998726,None,,,,,,,,,Tokka,1 - without skip,"54:46, 51:49","2.5s, 2.0s",2023-07-20_14h33.55.870,Rewa's Exp,2023.1.2,59.99692815724245,
2.5,Countdown_2.5s.mp4,red,"[-1.0, 1.0, -1.0]",right,Countdown_2.5s.jpg,13,0,13,0,0,0,0,1,0,0,0,1,,,,,0,3,3,0,,,,,,,,1099.4433465000002,1100.3893709,0.9460243999997147,,,,,43,51:49,1,right,1,0.9269989999997961,None,,,,,,,,,Tokka,1 - without skip,"54:46, 51:49","2.5s, 2.0s",2023-07-20_14h33.55.870,Rewa's Exp,2023.1.2,59.99692815724245,
2.5,Countdown_2.5s.mp4,"[-1.0, 1.0, -1.0]",red,left,Countdown_2.5s.jpg,13,0,13,0,0,0,0,1,0,0,0,1,,,,,1,0,4,2,,,,,,,,1104.3149561,1104.9893671,0.6744109999999637,,,,,44,51:49,1,left,1,0.6466791000002559,None,,,,,,,,,Tokka,1 - without skip,"54:46, 51:49","2.5s, 2.0s",2023-07-20_14h33.55.870,Rewa's Exp,2023.1.2,59.99692815724245,
2,Countdown_2s.mp4,"[-1.0, 1.0, -1.0]",red,left,Countdown_2s.jpg,13,0,13,0,0,0,0,1,0,0,0,1,,,,,1,1,5,3,,,,,,,,1108.9538459,1109.7893911,0.8355452000000696,,,,,45,51:49,1,left,1,0.8077554999999847,None,,,,,,,,,Tokka,1 - without skip,"54:46, 51:49","2.5s, 2.0s",2023-07-20_14h33.55.870,Rewa's Exp,2023.1.2,59.99692815724245,
2.5,Countdown_2.5s.mp4,red,"[-1.0, 1.0, -1.0]",right,Countdown_2.5s.jpg,13,0,13,0,0,0,0,1,0,0,0,1,,,,,1,2,6,0,,,,,,,,1113.7603507,1114.7392842,0.9789335000000392,,,,,46,51:49,1,right,1,0.9541921999998522,None,,,,,,,,,Tokka,1 - without skip,"54:46, 51:49","2.5s, 2.0s",2023-07-20_14h33.55.870,Rewa's Exp,2023.1.2,59.99692815724245,
2,Countdown_2s.mp4,red,"[-1.0, 1.0, -1.0]",right,Countdown_2s.jpg,13,0,13,0,0,0,0,1,0,0,0,1,,,,,1,3,7,1,,,,,,,,1118.6349725999999,1119.5558707,0.9208981000001586,,,,,44,51:49,-2,left,0,0.894049300000006,None,,,,,,,,,Tokka,1 - without skip,"54:46, 51:49","2.5s, 2.0s",2023-07-20_14h33.55.870,Rewa's Exp,2023.1.2,59.99692815724245,
2,Countdown_2s.mp4,red,"[-1.0, 1.0, -1.0]",right,Countdown_2s.jpg,13,0,13,0,0,0,0,1,0,0,0,1,,,,,,,,,,,,,,,,,,,,,,,,,,,,,,1125.9356657000003,1125.9356657000003,1125.9356657000003,1125.9356657000003,space,2.5091717999998764,,,Tokka,1 - without skip,"54:46, 51:49","2.5s, 2.0s",2023-07-20_14h33.55.870,Rewa's Exp,2023.1.2,59.99692815724245,
2,Countdown_2s.mp4,red,"[-1.0, 1.0, -1.0]",right,Countdown_2s.jpg,14,0,14,0,0,0,0,0,0,0,0,1,0,0,0,1,,,,,,,,,,,,1126.0137607000001,1126.7391347000002,0.7253740000001017,left,0,0.7009044000001268,None,42,54:46,-2,,,,,,,,,,,,,Tokka,1 - without skip,"54:46, 51:49","2.5s, 2.0s",2023-07-20_14h33.55.870,Rewa's Exp,2023.1.2,59.99692815724245,
2,Countdown_2s.mp4,"[-1.0, 1.0, -1.0]",red,left,Countdown_2s.jpg,14,0,14,0,0,0,0,0,0,0,0,1,0,1,1,3,,,,,,,,,,,,1130.6376056,1131.5226844,0.8850787999999739,left,1,0.8680701999996927,None,43,54:46,1,,,,,,,,,,,,,Tokka,1 - without skip,"54:46, 51:49","2.5s, 2.0s",2023-07-20_14h33.55.870,Rewa's Exp,2023.1.2,59.99692815724245,
2.5,Countdown_2.5s.mp4,"[-1.0, 1.0, -1.0]",red,left,Countdown_2.5s.jpg,14,0,14,0,0,0,0,0,0,0,0,1,0,2,2,2,,,,,,,,,,,,1135.4330485,1136.4892704,1.056221899999855,right,0,1.0326275999996142,None,41,54:46,-2,,,,,,,,,,,,,Tokka,1 - without skip,"54:46, 51:49","2.5s, 2.0s",2023-07-20_14h33.55.870,Rewa's Exp,2023.1.2,59.99692815724245,
2.5,Countdown_2.5s.mp4,red,"[-1.0, 1.0, -1.0]",right,Countdown_2.5s.jpg,14,0,14,0,0,0,0,0,0,0,0,1,0,3,3,0,,,,,,,,,,,,1140.4046798,1141.0727759000001,0.6680961000001844,right,1,0.6446897000000718,None,42,54:46,1,,,,,,,,,,,,,Tokka,1 - without skip,"54:46, 51:49","2.5s, 2.0s",2023-07-20_14h33.55.870,Rewa's Exp,2023.1.2,59.99692815724245,
2,Countdown_2s.mp4,"[-1.0, 1.0, -1.0]",red,left,Countdown_2s.jpg,14,0,14,0,0,0,0,0,0,0,0,1,1,0,4,3,,,,,,,,,,,,1145.0015475,1145.7059267,0.7043791999999485,left,1,0.6875598999999966,None,43,54:46,1,,,,,,,,,,,,,Tokka,1 - without skip,"54:46, 51:49","2.5s, 2.0s",2023-07-20_14h33.55.870,Rewa's Exp,2023.1.2,59.99692815724245,
2.5,Countdown_2.5s.mp4,red,"[-1.0, 1.0, -1.0]",right,Countdown_2.5s.jpg,14,0,14,0,0,0,0,0,0,0,0,1,1,1,5,0,,,,,,,,,,,,1149.5995386,1150.7227272999999,1.1231886999999006,left,0,1.0908847000000605,None,41,54:46,-2,,,,,,,,,,,,,Tokka,1 - without skip,"54:46, 51:49","2.5s, 2.0s",2023-07-20_14h33.55.870,Rewa's Exp,2023.1.2,59.99692815724245,
2.5,Countdown_2.5s.mp4,"[-1.0, 1.0, -1.0]",red,left,Countdown_2.5s.jpg,14,0,14,0,0,0,0,0,0,0,0,1,1,2,6,2,,,,,,,,,,,,1154.6428455999999,1155.5060781000002,0.863232500000322,left,1,0.8397985999995399,None,42,54:46,1,,,,,,,,,,,,,Tokka,1 - without skip,"54:46, 51:49","2.5s, 2.0s",2023-07-20_14h33.55.870,Rewa's Exp,2023.1.2,59.99692815724245,
2,Countdown_2s.mp4,red,"[-1.0, 1.0, -1.0]",right,Countdown_2s.jpg,14,0,14,0,0,0,0,0,0,0,0,1,1,3,7,1,,,,,,,,,,,,1159.3953671,1160.1228612,0.7274941000000581,right,1,0.702639299999646,None,43,54:46,1,,,,,,,,,,,,,Tokka,1 - without skip,"54:46, 51:49","2.5s, 2.0s",2023-07-20_14h33.55.870,Rewa's Exp,2023.1.2,59.99692815724245,
2,Countdown_2s.mp4,red,"[-1.0, 1.0, -1.0]",right,Countdown_2s.jpg,14,0,14,0,0,0,0,0,0,0,0,1,,,,,0,0,0,1,,,,,,,,1164.0608284999998,1164.7392797000002,0.6784512000003815,,,,,41,51:49,-2,left,0,0.661161699999866,None,,,,,,,,,Tokka,1 - without skip,"54:46, 51:49","2.5s, 2.0s",2023-07-20_14h33.55.870,Rewa's Exp,2023.1.2,59.99692815724245,
2.5,Countdown_2.5s.mp4,"[-1.0, 1.0, -1.0]",red,left,Countdown_2.5s.jpg,14,0,14,0,0,0,0,0,0,0,0,1,,,,,0,1,1,2,,,,,,,,1168.6925369,1169.5560363,0.8634993999999097,,,,,42,51:49,1,left,1,0.8457090000001699,None,,,,,,,,,Tokka,1 - without skip,"54:46, 51:49","2.5s, 2.0s",2023-07-20_14h33.55.870,Rewa's Exp,2023.1.2,59.99692815724245,
2,Countdown_2s.mp4,"[-1.0, 1.0, -1.0]",red,left,Countdown_2s.jpg,14,0,14,0,0,0,0,0,0,0,0,1,,,,,0,2,2,3,,,,,,,,1173.4492931999998,1174.0398381,0.5905449000001681,,,,,40,51:49,-2,right,0,0.5684197000000495,None,,,,,,,,,Tokka,1 - without skip,"54:46, 51:49","2.5s, 2.0s",2023-07-20_14h33.55.870,Rewa's Exp,2023.1.2,59.99692815724245,
2.5,Countdown_2.5s.mp4,red,"[-1.0, 1.0, -1.0]",right,Countdown_2.5s.jpg,14,0,14,0,0,0,0,0,0,0,0,1,,,,,0,3,3,0,,,,,,,,1177.9678886000002,1178.8227551999998,0.8548665999996956,,,,,38,51:49,-2,left,0,0.8252575999999863,None,,,,,,,,,Tokka,1 - without skip,"54:46, 51:49","2.5s, 2.0s",2023-07-20_14h33.55.870,Rewa's Exp,2023.1.2,59.99692815724245,
2,Countdown_2s.mp4,red,"[-1.0, 1.0, -1.0]",right,Countdown_2s.jpg,14,0,14,0,0,0,0,0,0,0,0,1,,,,,1,0,4,1,,,,,,,,1182.7234595,1183.92267,1.1992104999999356,,,,,36,51:49,-2,left,0,1.1668992999998409,None,,,,,,,,,Tokka,1 - without skip,"54:46, 51:49","2.5s, 2.0s",2023-07-20_14h33.55.870,Rewa's Exp,2023.1.2,59.99692815724245,
2.5,Countdown_2.5s.mp4,red,"[-1.0, 1.0, -1.0]",right,Countdown_2.5s.jpg,14,0,14,0,0,0,0,0,0,0,0,1,,,,,1,1,5,0,,,,,,,,1187.8520025000003,1189.1559553000002,1.3039527999999336,,,,,34,51:49,-2,left,0,1.2772210999996787,None,,,,,,,,,Tokka,1 - without skip,"54:46, 51:49","2.5s, 2.0s",2023-07-20_14h33.55.870,Rewa's Exp,2023.1.2,59.99692815724245,
2,Countdown_2s.mp4,"[-1.0, 1.0, -1.0]",red,left,Countdown_2s.jpg,14,0,14,0,0,0,0,0,0,0,0,1,,,,,1,2,6,3,,,,,,,,1193.0492872999998,1194.0396193000001,0.9903320000003077,,,,,35,51:49,1,left,1,0.9684726999998929,None,,,,,,,,,Tokka,1 - without skip,"54:46, 51:49","2.5s, 2.0s",2023-07-20_14h33.55.870,Rewa's Exp,2023.1.2,59.99692815724245,
2.5,Countdown_2.5s.mp4,"[-1.0, 1.0, -1.0]",red,left,Countdown_2.5s.jpg,14,0,14,0,0,0,0,0,0,0,0,1,,,,,1,3,7,2,,,,,,,,1197.9655587000002,1199.2557689999999,1.2902102999996714,,,,,36,51:49,1,left,1,1.2686070999998265,None,,,,,,,,,Tokka,1 - without skip,"54:46, 51:49","2.5s, 2.0s",2023-07-20_14h33.55.870,Rewa's Exp,2023.1.2,59.99692815724245,
2,Countdown_2s.mp4,red,"[-1.0, 1.0, -1.0]",right,Countdown_2s.jpg,14,0,14,0,0,0,0,0,0,0,0,1,,,,,,,,,,,,,,,,,,,,,,,,,,,,,,1205.6188236000003,1205.6188236000003,1205.6188236000003,1205.6188236000003,space,1.7460470999994868,,,Tokka,1 - without skip,"54:46, 51:49","2.5s, 2.0s",2023-07-20_14h33.55.870,Rewa's Exp,2023.1.2,59.99692815724245,
,,,,,,,,,,,,,,,,,,,,,,,,,,,,,,,,,,,,,,,,,,,,,,,,,,,,,1207.3854733000003,1212.3852401000004,,,,,,,,,
