Countdown,color1,color2,correct,screenshot,trials.thisRepN,trials.thisTrialN,trials.thisN,trials.thisIndex,trials_6040.thisRepN,trials_6040.thisTrialN,trials_6040.thisN,trials_6040.thisIndex,trials_5743.thisRepN,trials_5743.thisTrialN,trials_5743.thisN,trials_5743.thisIndex,trials_5446.thisRepN,trials_5446.thisTrialN,trials_5446.thisN,trials_5446.thisIndex,key_resp_2.started,key_resp_2.keys,key_resp_2.rt,Videoshowstart,Videoshowstop,VideoshowRT,response.keys,response.corr,total_score,response.rt,Left_3.started,response_2.keys,response_2.corr,response_2.rt,response_3.keys,response_3.corr,response_3.rt,text_2.started,text_5.started,text_6.started,text_6.stopped,key_resp.keys,key_resp.rt,participant,date,expName,psychopyVersion,frameRate,
,,,,,,,,,,,,,,,,,,,,,16.32314170000609,space,13.604226300027221,,,,,,,,,,,,,,,,,,,,,133,2023-07-16_14h45.48.595,Rewa's Exp,2023.1.2,59.97375548025534,
Countdown_1.5s.mp4,red,green,right,Countdown_1.5s.jpg,0,0,0,0,0,0,0,2,,,,,,,,,,,,27.031262299977243,28.510041299974546,1.478778999997303,None,0,-2,,,,,,,,,,,,,,,133,2023-07-16_14h45.48.595,Rewa's Exp,2023.1.2,59.97375548025534,
Countdown_2.5s.mp4,green,red,left,Countdown_2.5s.jpg,0,0,0,0,0,1,1,4,,,,,,,,,,,,32.474839699978475,33.49342099996284,1.018581299984362,left,1,-1,0.9890473999548703,,,,,,,,,,,,,,133,2023-07-16_14h45.48.595,Rewa's Exp,2023.1.2,59.97375548025534,
Countdown_1.5s.mp4,green,red,left,Countdown_1.5s.jpg,0,0,0,0,0,2,2,3,,,,,,,,,,,,37.40465390001191,38.3441579999635,0.9395040999515913,left,1,0,0.9067489999579266,,,,,,,,,,,,,,133,2023-07-16_14h45.48.595,Rewa's Exp,2023.1.2,59.97375548025534,
Countdown_2s.mp4,green,red,left,Countdown_2s.jpg,0,0,0,0,0,3,3,5,,,,,,,,,,,,42.309448199986946,43.04337839997606,0.7339301999891177,left,1,1,0.7140769999823533,,,,,,,,,,,,,,133,2023-07-16_14h45.48.595,Rewa's Exp,2023.1.2,59.97375548025534,
Countdown_2s.mp4,red,green,right,Countdown_2s.jpg,0,0,0,0,0,4,4,1,,,,,,,,,,,,46.95784679998178,47.76012559997616,0.802278799994383,right,1,2,0.7704226999776438,,,,,,,,,,,,,,133,2023-07-16_14h45.48.595,Rewa's Exp,2023.1.2,59.97375548025534,
Countdown_2.5s.mp4,red,green,right,Countdown_2.5s.jpg,0,0,0,0,0,5,5,0,,,,,,,,,,,,51.69591589999618,52.39367670001229,0.6977608000161126,right,1,3,0.664767500013113,,,,,,,,,,,,,,133,2023-07-16_14h45.48.595,Rewa's Exp,2023.1.2,59.97375548025534,
Countdown_2s.mp4,green,red,left,Countdown_2s.jpg,0,0,0,0,,,,,0,0,0,5,,,,,,,,56.125068499997724,56.91015559999505,0.7850870999973267,,,1,,61.6846667000209,right,0,0.7544897999614477,,,,,,,,,,133,2023-07-16_14h45.48.595,Rewa's Exp,2023.1.2,59.97375548025534,
Countdown_1.5s.mp4,green,red,left,Countdown_1.5s.jpg,0,0,0,0,,,,,0,1,1,3,,,,,,,,60.81769960001111,61.42676190001657,0.609062300005462,,,2,,66.37731160002295,left,1,0.5835785000235774,,,,,,,,,,133,2023-07-16_14h45.48.595,Rewa's Exp,2023.1.2,59.97375548025534,
Countdown_2.5s.mp4,green,red,left,Countdown_2.5s.jpg,0,0,0,0,,,,,0,2,2,4,,,,,,,,65.39350299997022,66.26023580000037,0.8667328000301495,,,3,,70.95310400001472,left,1,0.8472178999800235,,,,,,,,,,133,2023-07-16_14h45.48.595,Rewa's Exp,2023.1.2,59.97375548025534,
Countdown_2s.mp4,red,green,right,Countdown_2s.jpg,0,0,0,0,,,,,0,3,3,1,,,,,,,,70.21370719996048,71.22673210001085,1.0130249000503682,,,1,,75.77325530000962,left,0,0.9860502000083216,,,,,,,,,,133,2023-07-16_14h45.48.595,Rewa's Exp,2023.1.2,59.97375548025534,
Countdown_2.5s.mp4,red,green,right,Countdown_2.5s.jpg,0,0,0,0,,,,,0,4,4,0,,,,,,,,75.17924580001272,76.39339499996277,1.2141491999500431,,,-1,,80.73876360000577,left,0,1.1974256999674253,,,,,,,,,,133,2023-07-16_14h45.48.595,Rewa's Exp,2023.1.2,59.97375548025534,
Countdown_1.5s.mp4,red,green,right,Countdown_1.5s.jpg,0,0,0,0,,,,,0,5,5,2,,,,,,,,80.30061269999715,81.52689809998265,1.2262853999854997,,,0,,85.8601719000144,right,1,1.2028215000173077,,,,,,,,,,133,2023-07-16_14h45.48.595,Rewa's Exp,2023.1.2,59.97375548025534,
Countdown_2.5s.mp4,red,green,right,Countdown_2.5s.jpg,0,0,0,0,,,,,,,,,0,0,0,0,,,,85.25399279996054,85.9768704000162,0.7228776000556536,,,1,,,,,,right,1,0.6992468999815173,,,,,,,133,2023-07-16_14h45.48.595,Rewa's Exp,2023.1.2,59.97375548025534,
Countdown_1.5s.mp4,red,green,right,Countdown_1.5s.jpg,0,0,0,0,,,,,,,,,0,1,1,2,,,,89.91009039996425,90.56013439997332,0.6500440000090748,,,2,,,,,,right,1,0.6271043999586254,,,,,,,133,2023-07-16_14h45.48.595,Rewa's Exp,2023.1.2,59.97375548025534,
Countdown_2s.mp4,green,red,left,Countdown_2s.jpg,0,0,0,0,,,,,,,,,0,2,2,5,,,,94.48912310000742,96.46147189999465,1.9723487999872304,,,0,,,,,,None,0,,,,,,,,133,2023-07-16_14h45.48.595,Rewa's Exp,2023.1.2,59.97375548025534,
Countdown_1.5s.mp4,green,red,left,Countdown_1.5s.jpg,0,0,0,0,,,,,,,,,0,3,3,3,,,,100.42175119998865,101.91019450000022,1.4884433000115678,,,-2,,,,,,None,0,,,,,,,,133,2023-07-16_14h45.48.595,Rewa's Exp,2023.1.2,59.97375548025534,
Countdown_2s.mp4,red,green,right,Countdown_2s.jpg,0,0,0,0,,,,,,,,,0,4,4,1,,,,105.8250476999674,106.66034349997062,0.8352958000032231,,,-4,,,,,,left,0,0.8071421999484301,,,,,,,133,2023-07-16_14h45.48.595,Rewa's Exp,2023.1.2,59.97375548025534,
Countdown_2.5s.mp4,green,red,left,Countdown_2.5s.jpg,0,0,0,0,,,,,,,,,0,5,5,4,,,,110.63362579996465,111.9102855999954,1.2766598000307567,,,-3,,,,,,left,1,1.2544009999837726,,,,,,,133,2023-07-16_14h45.48.595,Rewa's Exp,2023.1.2,59.97375548025534,
,,,,,0,0,0,0,,,,,,,,,,,,,,,,,,,,,,,,,,,,,,118.61402780003846,118.61402780003846,118.61402780003846,119.61389050004072,space,16.618668999988586,133,2023-07-16_14h45.48.595,Rewa's Exp,2023.1.2,59.97375548025534,
Countdown_1.5s.mp4,red,green,right,Countdown_1.5s.jpg,1,0,1,0,0,0,0,2,,,,,,,,,,,,132.50039649999235,133.9936603999813,1.4932638999889605,None,0,-5,,,,,,,,,,,,,,,133,2023-07-16_14h45.48.595,Rewa's Exp,2023.1.2,59.97375548025534,
Countdown_2s.mp4,red,green,right,Countdown_2s.jpg,1,0,1,0,0,1,1,1,,,,,,,,,,,,137.92722359998152,139.89356469997438,1.96634109999286,None,0,-7,,,,,,,,,,,,,,,133,2023-07-16_14h45.48.595,Rewa's Exp,2023.1.2,59.97375548025534,
Countdown_2.5s.mp4,green,red,left,Countdown_2.5s.jpg,1,0,1,0,0,2,2,4,,,,,,,,,,,,143.85022469999967,146.32678999996278,2.476565299963113,None,0,-9,,,,,,,,,,,,,,,133,2023-07-16_14h45.48.595,Rewa's Exp,2023.1.2,59.97375548025534,
Countdown_2.5s.mp4,red,green,right,Countdown_2.5s.jpg,1,0,1,0,0,3,3,0,,,,,,,,,,,,150.24989149998873,152.74359359999653,2.493702100007795,None,0,-11,,,,,,,,,,,,,,,133,2023-07-16_14h45.48.595,Rewa's Exp,2023.1.2,59.97375548025534,
Countdown_2s.mp4,green,red,left,Countdown_2s.jpg,1,0,1,0,0,4,4,5,,,,,,,,,,,,156.64155739999842,158.61023019999266,1.9686727999942377,None,0,-13,,,,,,,,,,,,,,,133,2023-07-16_14h45.48.595,Rewa's Exp,2023.1.2,59.97375548025534,
Countdown_1.5s.mp4,green,red,left,Countdown_1.5s.jpg,1,0,1,0,0,5,5,3,,,,,,,,,,,,162.56978819996584,164.06028380000498,1.4904956000391394,None,0,-15,,,,,,,,,,,,,,,133,2023-07-16_14h45.48.595,Rewa's Exp,2023.1.2,59.97375548025534,
Countdown_1.5s.mp4,green,red,left,Countdown_1.5s.jpg,1,0,1,0,,,,,0,0,0,3,,,,,,,,167.97337329998845,169.46033909998368,1.4869657999952324,,,-17,,173.53297200001543,None,0,,,,,,,,,,,133,2023-07-16_14h45.48.595,Rewa's Exp,2023.1.2,59.97375548025534,
Countdown_2s.mp4,red,green,right,Countdown_2s.jpg,1,0,1,0,,,,,0,1,1,1,,,,,,,,173.37453550001374,175.34356820001267,1.9690326999989338,,,-19,,178.9340504000429,None,0,,,,,,,,,,,133,2023-07-16_14h45.48.595,Rewa's Exp,2023.1.2,59.97375548025534,
Countdown_2.5s.mp4,green,red,left,Countdown_2.5s.jpg,1,0,1,0,,,,,0,2,2,4,,,,,,,,179.29792639997322,181.79382159997476,2.4958952000015415,,,-21,,184.85750849999022,None,0,,,,,,,,,,,133,2023-07-16_14h45.48.595,Rewa's Exp,2023.1.2,59.97375548025534,
Countdown_1.5s.mp4,red,green,right,Countdown_1.5s.jpg,1,0,1,0,,,,,0,3,3,2,,,,,,,,185.70273630000884,187.19359370000893,1.4908574000000954,,,-23,,191.26234120002482,None,0,,,,,,,,,,,133,2023-07-16_14h45.48.595,Rewa's Exp,2023.1.2,59.97375548025534,
Countdown_2s.mp4,green,red,left,Countdown_2s.jpg,1,0,1,0,,,,,0,4,4,5,,,,,,,,191.144011700002,193.110305899987,1.9662941999849863,,,-25,,196.7035603999975,None,0,,,,,,,,,,,133,2023-07-16_14h45.48.595,Rewa's Exp,2023.1.2,59.97375548025534,
Countdown_2.5s.mp4,red,green,right,Countdown_2.5s.jpg,1,0,1,0,,,,,0,5,5,0,,,,,,,,197.00022489996627,199.4941977999988,2.4939729000325315,,,-27,,202.55981659999816,None,0,,,,,,,,,,,133,2023-07-16_14h45.48.595,Rewa's Exp,2023.1.2,59.97375548025534,
Countdown_2.5s.mp4,red,green,right,Countdown_2.5s.jpg,1,0,1,0,,,,,,,,,0,0,0,0,,,,203.43611469998723,205.92712409998057,2.491009399993345,,,-29,,,,,,None,0,,,,,,,,133,2023-07-16_14h45.48.595,Rewa's Exp,2023.1.2,59.97375548025534,
Countdown_2.5s.mp4,green,red,left,Countdown_2.5s.jpg,1,0,1,0,,,,,,,,,0,1,1,4,,,,209.82129079999868,212.31046880001668,2.4891780000180006,,,-31,,,,,,None,0,,,,,,,,133,2023-07-16_14h45.48.595,Rewa's Exp,2023.1.2,59.97375548025534,
Countdown_1.5s.mp4,red,green,right,Countdown_1.5s.jpg,1,0,1,0,,,,,,,,,0,2,2,2,,,,216.251820400008,217.743778700009,1.491958300000988,,,-33,,,,,,None,0,,,,,,,,133,2023-07-16_14h45.48.595,Rewa's Exp,2023.1.2,59.97375548025534,
Countdown_1.5s.mp4,green,red,left,Countdown_1.5s.jpg,1,0,1,0,,,,,,,,,0,3,3,3,,,,221.69597389997216,223.1938160000136,1.4978421000414528,,,-35,,,,,,None,0,,,,,,,,133,2023-07-16_14h45.48.595,Rewa's Exp,2023.1.2,59.97375548025534,
Countdown_2s.mp4,green,red,left,Countdown_2s.jpg,1,0,1,0,,,,,,,,,0,4,4,5,,,,227.08635319996392,229.06041299999924,1.9740598000353202,,,-37,,,,,,None,0,,,,,,,,133,2023-07-16_14h45.48.595,Rewa's Exp,2023.1.2,59.97375548025534,
Countdown_2s.mp4,red,green,right,Countdown_2s.jpg,1,0,1,0,,,,,,,,,0,5,5,1,,,,233.02171529998304,234.99396639998304,1.972251099999994,,,-39,,,,,,None,0,,,,,,,,133,2023-07-16_14h45.48.595,Rewa's Exp,2023.1.2,59.97375548025534,
,,,,,1,0,1,0,,,,,,,,,,,,,,,,,,,,,,,,,,,,,,241.68106890004128,241.68106890004128,241.68106890004128,242.6809760000324,space,12.431126300012693,133,2023-07-16_14h45.48.595,Rewa's Exp,2023.1.2,59.97375548025534,
Countdown_2s.mp4,green,red,left,Countdown_2s.jpg,2,0,2,0,0,0,0,5,,,,,,,,,,,,251.33878059999552,253.31039930001134,1.9716187000158243,None,0,-41,,,,,,,,,,,,,,,133,2023-07-16_14h45.48.595,Rewa's Exp,2023.1.2,59.97375548025534,
Countdown_1.5s.mp4,red,green,right,Countdown_1.5s.jpg,2,0,2,0,0,1,1,2,,,,,,,,,,,,257.2917936000158,258.7770987999975,1.485305199981667,None,0,-43,,,,,,,,,,,,,,,133,2023-07-16_14h45.48.595,Rewa's Exp,2023.1.2,59.97375548025534,
Countdown_2s.mp4,red,green,right,Countdown_2s.jpg,2,0,2,0,0,2,2,1,,,,,,,,,,,,262.67808659997536,264.64368689997355,1.9656002999981865,None,0,-45,,,,,,,,,,,,,,,133,2023-07-16_14h45.48.595,Rewa's Exp,2023.1.2,59.97375548025534,
Countdown_1.5s.mp4,green,red,left,Countdown_1.5s.jpg,2,0,2,0,0,3,3,3,,,,,,,,,,,,268.5538014000049,270.04399579996243,1.490194399957545,None,0,-47,,,,,,,,,,,,,,,133,2023-07-16_14h45.48.595,Rewa's Exp,2023.1.2,59.97375548025534,
Countdown_2.5s.mp4,red,green,right,Countdown_2.5s.jpg,2,0,2,0,0,4,4,0,,,,,,,,,,,,274.0068929999834,276.493757499964,2.486864499980584,None,0,-49,,,,,,,,,,,,,,,133,2023-07-16_14h45.48.595,Rewa's Exp,2023.1.2,59.97375548025534,
Countdown_2.5s.mp4,green,red,left,Countdown_2.5s.jpg,2,0,2,0,0,5,5,4,,,,,,,,,,,,280.39775150001515,282.89388970000437,2.4961381999892183,None,0,-51,,,,,,,,,,,,,,,133,2023-07-16_14h45.48.595,Rewa's Exp,2023.1.2,59.97375548025534,
Countdown_1.5s.mp4,green,red,left,Countdown_1.5s.jpg,2,0,2,0,,,,,0,0,0,3,,,,,,,,286.80588289996376,288.29380039998796,1.4879175000241958,,,-53,,292.365446300013,None,0,,,,,,,,,,,133,2023-07-16_14h45.48.595,Rewa's Exp,2023.1.2,59.97375548025534,
Countdown_2s.mp4,red,green,right,Countdown_2s.jpg,2,0,2,0,,,,,0,1,1,1,,,,,,,,292.19633539998904,294.16064489999553,1.9643095000064932,,,-55,,297.7558597000316,None,0,,,,,,,,,,,133,2023-07-16_14h45.48.595,Rewa's Exp,2023.1.2,59.97375548025534,
Countdown_2.5s.mp4,red,green,right,Countdown_2.5s.jpg,2,0,2,0,,,,,0,2,2,0,,,,,,,,298.0742331999936,300.56057500001043,2.4863418000168167,,,-57,,303.6338367999997,None,0,,,,,,,,,,,133,2023-07-16_14h45.48.595,Rewa's Exp,2023.1.2,59.97375548025534,
Countdown_1.5s.mp4,red,green,right,Countdown_1.5s.jpg,2,0,2,0,,,,,0,3,3,2,,,,,,,,304.47885849996237,305.9772280000034,1.498369500041008,,,-59,,310.0384195999941,None,0,,,,,,,,,,,133,2023-07-16_14h45.48.595,Rewa's Exp,2023.1.2,59.97375548025534,
Countdown_2.5s.mp4,green,red,left,Countdown_2.5s.jpg,2,0,2,0,,,,,0,4,4,4,,,,,,,,309.8830077999737,312.37737190001644,2.4943641000427306,,,-61,,315.44181879999815,None,0,,,,,,,,,,,133,2023-07-16_14h45.48.595,Rewa's Exp,2023.1.2,59.97375548025534,
Countdown_2s.mp4,green,red,left,Countdown_2s.jpg,2,0,2,0,,,,,0,5,5,5,,,,,,,,316.283935000014,318.2440363999922,1.9601013999781571,,,-63,,321.8433715000283,None,0,,,,,,,,,,,133,2023-07-16_14h45.48.595,Rewa's Exp,2023.1.2,59.97375548025534,
Countdown_1.5s.mp4,green,red,left,Countdown_1.5s.jpg,2,0,2,0,,,,,,,,,0,0,0,3,,,,322.15357959998073,323.6438323999755,1.4902527999947779,,,-65,,,,,,None,0,,,,,,,,133,2023-07-16_14h45.48.595,Rewa's Exp,2023.1.2,59.97375548025534,
Countdown_2.5s.mp4,green,red,left,Countdown_2.5s.jpg,2,0,2,0,,,,,,,,,0,1,1,4,,,,327.60245499998564,330.09396440000273,2.491509400017094,,,-67,,,,,,None,0,,,,,,,,133,2023-07-16_14h45.48.595,Rewa's Exp,2023.1.2,59.97375548025534,
Countdown_2.5s.mp4,red,green,right,Countdown_2.5s.jpg,2,0,2,0,,,,,,,,,0,2,2,0,,,,334.0182975999778,336.5106141999713,2.492316599993501,,,-69,,,,,,None,0,,,,,,,,133,2023-07-16_14h45.48.595,Rewa's Exp,2023.1.2,59.97375548025534,
Countdown_2s.mp4,red,green,right,Countdown_2s.jpg,2,0,2,0,,,,,,,,,0,3,3,1,,,,340.46935709996615,342.4439125999925,1.9745555000263266,,,-71,,,,,,None,0,,,,,,,,133,2023-07-16_14h45.48.595,Rewa's Exp,2023.1.2,59.97375548025534,
Countdown_1.5s.mp4,red,green,right,Countdown_1.5s.jpg,2,0,2,0,,,,,,,,,0,4,4,2,,,,346.3390111000044,347.82734610000625,1.4883350000018254,,,-73,,,,,,None,0,,,,,,,,133,2023-07-16_14h45.48.595,Rewa's Exp,2023.1.2,59.97375548025534,
Countdown_2s.mp4,green,red,left,Countdown_2s.jpg,2,0,2,0,,,,,,,,,0,5,5,5,,,,351.74469109997153,353.71070559998043,1.966014500008896,,,-75,,,,,,None,0,,,,,,,,133,2023-07-16_14h45.48.595,Rewa's Exp,2023.1.2,59.97375548025534,
,,,,,2,0,2,0,,,,,,,,,,,,,,,,,,,,,,,,,,,,,,360.4162925000419,360.4162925000419,360.4162925000419,361.43113859998994,space,10.87197889998788,133,2023-07-16_14h45.48.595,Rewa's Exp,2023.1.2,59.97375548025534,
Countdown_1.5s.mp4,green,red,left,Countdown_1.5s.jpg,3,0,3,0,0,0,0,3,,,,,,,,,,,,368.53665279998677,370.027486499981,1.4908336999942549,None,0,-77,,,,,,,,,,,,,,,133,2023-07-16_14h45.48.595,Rewa's Exp,2023.1.2,59.97375548025534,
Countdown_1.5s.mp4,red,green,right,Countdown_1.5s.jpg,3,0,3,0,0,1,1,2,,,,,,,,,,,,373.9781149000046,375.4774641999975,1.4993492999929003,None,0,-79,,,,,,,,,,,,,,,133,2023-07-16_14h45.48.595,Rewa's Exp,2023.1.2,59.97375548025534,
Countdown_2.5s.mp4,red,green,right,Countdown_2.5s.jpg,3,0,3,0,0,2,2,0,,,,,,,,,,,,379.3852656999952,381.87728289997904,2.4920171999838203,None,0,-81,,,,,,,,,,,,,,,133,2023-07-16_14h45.48.595,Rewa's Exp,2023.1.2,59.97375548025534,
Countdown_2s.mp4,red,green,right,Countdown_2s.jpg,3,0,3,0,0,3,3,1,,,,,,,,,,,,385.8267259999993,387.7940447999863,1.9673187999869697,None,0,-83,,,,,,,,,,,,,,,133,2023-07-16_14h45.48.595,Rewa's Exp,2023.1.2,59.97375548025534,
Countdown_2s.mp4,green,red,left,Countdown_2s.jpg,3,0,3,0,0,4,4,5,,,,,,,,,,,,391.7163323999848,393.6940462999628,1.9777138999779709,None,0,-85,,,,,,,,,,,,,,,133,2023-07-16_14h45.48.595,Rewa's Exp,2023.1.2,59.97375548025534,
Countdown_2.5s.mp4,green,red,left,Countdown_2.5s.jpg,3,0,3,0,0,5,5,4,,,,,,,,,,,,397.59652989997994,400.0941545999958,2.4976247000158764,None,0,-87,,,,,,,,,,,,,,,133,2023-07-16_14h45.48.595,Rewa's Exp,2023.1.2,59.97375548025534,
Countdown_1.5s.mp4,green,red,left,Countdown_1.5s.jpg,3,0,3,0,,,,,0,0,0,3,,,,,,,,403.99778099998366,405.4940590999904,1.496278100006748,,,-89,,409.5573824000312,None,0,,,,,,,,,,,133,2023-07-16_14h45.48.595,Rewa's Exp,2023.1.2,59.97375548025534,
Countdown_2s.mp4,red,green,right,Countdown_2s.jpg,3,0,3,0,,,,,0,1,1,1,,,,,,,,409.37541739997687,411.34413559996756,1.9687181999906898,,,-91,,414.9349798000185,None,0,,,,,,,,,,,133,2023-07-16_14h45.48.595,Rewa's Exp,2023.1.2,59.97375548025534,
Countdown_2.5s.mp4,red,green,right,Countdown_2.5s.jpg,3,0,3,0,,,,,0,2,2,0,,,,,,,,415.294902499998,417.79430179996416,2.4993992999661714,,,-93,,420.85448650002945,None,0,,,,,,,,,,,133,2023-07-16_14h45.48.595,Rewa's Exp,2023.1.2,59.97375548025534,
Countdown_2s.mp4,green,red,left,Countdown_2s.jpg,3,0,3,0,,,,,0,3,3,5,,,,,,,,421.68740599998273,423.6608798999805,1.9734738999977708,,,-95,,427.246984300029,None,0,,,,,,,,,,,133,2023-07-16_14h45.48.595,Rewa's Exp,2023.1.2,59.97375548025534,
Countdown_2.5s.mp4,green,red,left,Countdown_2.5s.jpg,3,0,3,0,,,,,0,4,4,4,,,,,,,,427.5644712999929,430.0608555999934,2.4963843000005,,,-97,,433.1240549000213,None,0,,,,,,,,,,,133,2023-07-16_14h45.48.595,Rewa's Exp,2023.1.2,59.97375548025534,
Countdown_1.5s.mp4,red,green,right,Countdown_1.5s.jpg,3,0,3,0,,,,,0,5,5,2,,,,,,,,433.97174929996254,435.46105169999646,1.489302400033921,,,-99,,439.5313468000386,None,0,,,,,,,,,,,133,2023-07-16_14h45.48.595,Rewa's Exp,2023.1.2,59.97375548025534,
Countdown_2.5s.mp4,red,green,right,Countdown_2.5s.jpg,3,0,3,0,,,,,,,,,0,0,0,0,,,,439.36864040000364,441.8609925999772,2.4923521999735385,,,-101,,,,,,None,0,,,,,,,,133,2023-07-16_14h45.48.595,Rewa's Exp,2023.1.2,59.97375548025534,
Countdown_2s.mp4,red,green,right,Countdown_2s.jpg,3,0,3,0,,,,,,,,,0,1,1,1,,,,445.82796600001166,447.79418640001677,1.9662204000051133,,,-103,,,,,,None,0,,,,,,,,133,2023-07-16_14h45.48.595,Rewa's Exp,2023.1.2,59.97375548025534,
Countdown_1.5s.mp4,green,red,left,Countdown_1.5s.jpg,3,0,3,0,,,,,,,,,0,2,2,3,,,,451.68890339997597,453.1779920000117,1.4890886000357568,,,-105,,,,,,None,0,,,,,,,,133,2023-07-16_14h45.48.595,Rewa's Exp,2023.1.2,59.97375548025534,
Countdown_2.5s.mp4,green,red,left,Countdown_2.5s.jpg,3,0,3,0,,,,,,,,,0,3,3,4,,,,457.0707342000096,459.561045999988,2.4903117999783717,,,-107,,,,,,None,0,,,,,,,,133,2023-07-16_14h45.48.595,Rewa's Exp,2023.1.2,59.97375548025534,
Countdown_1.5s.mp4,red,green,right,Countdown_1.5s.jpg,3,0,3,0,,,,,,,,,0,4,4,2,,,,463.500801599992,464.99396300001536,1.4931614000233822,,,-109,,,,,,None,0,,,,,,,,133,2023-07-16_14h45.48.595,Rewa's Exp,2023.1.2,59.97375548025534,
Countdown_2s.mp4,green,red,left,Countdown_2s.jpg,3,0,3,0,,,,,,,,,0,5,5,5,,,,468.9400249000173,470.9111243999796,1.9710994999622926,,,-111,,,,,,None,0,,,,,,,,133,2023-07-16_14h45.48.595,Rewa's Exp,2023.1.2,59.97375548025534,
,,,,,3,0,3,0,,,,,,,,,,,,,,,,,,,,,,,,,,,,,,477.5980969000375,477.5980969000375,477.5980969000375,478.5980976000428,space,30.217926800018176,133,2023-07-16_14h45.48.595,Rewa's Exp,2023.1.2,59.97375548025534,
Countdown_1.5s.mp4,red,green,right,Countdown_1.5s.jpg,4,0,4,0,0,0,0,2,,,,,,,,,,,,505.0750041999854,506.56106779997936,1.4860635999939404,None,0,-113,,,,,,,,,,,,,,,133,2023-07-16_14h45.48.595,Rewa's Exp,2023.1.2,59.97375548025534,
Countdown_1.5s.mp4,green,red,left,Countdown_1.5s.jpg,4,0,4,0,0,1,1,3,,,,,,,,,,,,510.45942669996293,511.944360399968,1.4849337000050582,None,0,-115,,,,,,,,,,,,,,,133,2023-07-16_14h45.48.595,Rewa's Exp,2023.1.2,59.97375548025534,
Countdown_2.5s.mp4,red,green,right,Countdown_2.5s.jpg,4,0,4,0,0,2,2,0,,,,,,,,,,,,515.8645585000049,518.3611497000093,2.4965912000043318,None,0,-117,,,,,,,,,,,,,,,133,2023-07-16_14h45.48.595,Rewa's Exp,2023.1.2,59.97375548025534,
Countdown_2.5s.mp4,green,red,left,Countdown_2.5s.jpg,4,0,4,0,0,3,3,4,,,,,,,,,,,,522.2654486999963,524.760787200008,2.4953385000117123,None,0,-119,,,,,,,,,,,,,,,133,2023-07-16_14h45.48.595,Rewa's Exp,2023.1.2,59.97375548025534,
Countdown_2s.mp4,red,green,right,Countdown_2s.jpg,4,0,4,0,0,4,4,1,,,,,,,,,,,,528.6606303000008,530.6276117999805,1.9669814999797381,None,0,-121,,,,,,,,,,,,,,,133,2023-07-16_14h45.48.595,Rewa's Exp,2023.1.2,59.97375548025534,
Countdown_2s.mp4,green,red,left,Countdown_2s.jpg,4,0,4,0,0,5,5,5,,,,,,,,,,,,534.5604654999916,536.5275164999766,1.9670509999850765,None,0,-123,,,,,,,,,,,,,,,133,2023-07-16_14h45.48.595,Rewa's Exp,2023.1.2,59.97375548025534,
Countdown_2.5s.mp4,red,green,right,Countdown_2.5s.jpg,4,0,4,0,,,,,0,0,0,0,,,,,,,,540.4535002000048,542.9445334000047,2.491033199999947,,,-125,,546.0130701999879,None,0,,,,,,,,,,,133,2023-07-16_14h45.48.595,Rewa's Exp,2023.1.2,59.97375548025534,
Countdown_1.5s.mp4,red,green,right,Countdown_1.5s.jpg,4,0,4,0,,,,,0,1,1,2,,,,,,,,546.9112197000068,548.4110075999633,1.4997878999565728,,,-127,,552.4708226000075,None,0,,,,,,,,,,,133,2023-07-16_14h45.48.595,Rewa's Exp,2023.1.2,59.97375548025534,
Countdown_2s.mp4,green,red,left,Countdown_2s.jpg,4,0,4,0,,,,,0,2,2,5,,,,,,,,552.3063377999933,554.2777037000051,1.9713659000117332,,,-129,,557.865920900018,None,0,,,,,,,,,,,133,2023-07-16_14h45.48.595,Rewa's Exp,2023.1.2,59.97375548025534,
Countdown_2s.mp4,red,green,right,Countdown_2s.jpg,4,0,4,0,,,,,0,3,3,1,,,,,,,,558.2504520000075,560.227641000005,1.977188999997452,,,-131,,563.8100514000398,None,0,,,,,,,,,,,133,2023-07-16_14h45.48.595,Rewa's Exp,2023.1.2,59.97375548025534,
Countdown_1.5s.mp4,green,red,left,Countdown_1.5s.jpg,4,0,4,0,,,,,0,4,4,3,,,,,,,,564.1155067000072,565.6108794999891,1.4953727999818511,,,-133,,569.6750615999917,None,0,,,,,,,,,,,133,2023-07-16_14h45.48.595,Rewa's Exp,2023.1.2,59.97375548025534,
Countdown_2.5s.mp4,green,red,left,Countdown_2.5s.jpg,4,0,4,0,,,,,0,5,5,4,,,,,,,,569.5219503999688,572.0111124999821,2.4891621000133455,,,-135,,575.0811579000438,None,0,,,,,,,,,,,133,2023-07-16_14h45.48.595,Rewa's Exp,2023.1.2,59.97375548025534,
Countdown_2s.mp4,green,red,left,Countdown_2s.jpg,4,0,4,0,,,,,,,,,0,0,0,5,,,,575.9192400000175,577.894541000016,1.9753009999985807,,,-137,,,,,,None,0,,,,,,,,133,2023-07-16_14h45.48.595,Rewa's Exp,2023.1.2,59.97375548025534,
Countdown_2.5s.mp4,red,green,right,Countdown_2.5s.jpg,4,0,4,0,,,,,,,,,0,1,1,0,,,,581.8044310999685,584.2945941999787,2.4901631000102498,,,-139,,,,,,None,0,,,,,,,,133,2023-07-16_14h45.48.595,Rewa's Exp,2023.1.2,59.97375548025534,
Countdown_2s.mp4,red,green,right,Countdown_2s.jpg,4,0,4,0,,,,,,,,,0,2,2,1,,,,588.2072292999947,590.1779037999804,1.970674499985762,,,-141,,,,,,None,0,,,,,,,,133,2023-07-16_14h45.48.595,Rewa's Exp,2023.1.2,59.97375548025534,
Countdown_1.5s.mp4,green,red,left,Countdown_1.5s.jpg,4,0,4,0,,,,,,,,,0,3,3,3,,,,594.09094189998,595.5779042000067,1.4869623000267893,,,-143,,,,,,None,0,,,,,,,,133,2023-07-16_14h45.48.595,Rewa's Exp,2023.1.2,59.97375548025534,
Countdown_1.5s.mp4,red,green,right,Countdown_1.5s.jpg,4,0,4,0,,,,,,,,,0,4,4,2,,,,599.4764527999796,600.961116099963,1.4846632999833673,,,-145,,,,,,None,0,,,,,,,,133,2023-07-16_14h45.48.595,Rewa's Exp,2023.1.2,59.97375548025534,
Countdown_2.5s.mp4,green,red,left,Countdown_2.5s.jpg,4,0,4,0,,,,,,,,,0,5,5,4,,,,604.8850840000086,607.3777680000057,2.492683999997098,,,-147,,,,,,None,0,,,,,,,,133,2023-07-16_14h45.48.595,Rewa's Exp,2023.1.2,59.97375548025534,
,,,,,4,0,4,0,,,,,,,,,,,,,,,,,,,,,,,,,,,,,,614.0650690000039,614.0650690000039,614.0650690000039,615.0650277000386,space,3.8228447000146843,133,2023-07-16_14h45.48.595,Rewa's Exp,2023.1.2,59.97375548025534,
Countdown_2s.mp4,green,red,left,Countdown_2s.jpg,5,0,5,0,0,0,0,5,,,,,,,,,,,,615.1579192999634,617.1279704999761,1.9700512000126764,None,0,-149,,,,,,,,,,,,,,,133,2023-07-16_14h45.48.595,Rewa's Exp,2023.1.2,59.97375548025534,
Countdown_1.5s.mp4,green,red,left,Countdown_1.5s.jpg,5,0,5,0,0,1,1,3,,,,,,,,,,,,621.0256328000105,622.511155300017,1.485522500006482,None,0,-151,,,,,,,,,,,,,,,133,2023-07-16_14h45.48.595,Rewa's Exp,2023.1.2,59.97375548025534,
Countdown_2s.mp4,red,green,right,Countdown_2s.jpg,5,0,5,0,0,2,2,1,,,,,,,,,,,,626.4381872999948,628.4112090999843,1.9730217999895103,None,0,-153,,,,,,,,,,,,,,,133,2023-07-16_14h45.48.595,Rewa's Exp,2023.1.2,59.97375548025534,
Countdown_2.5s.mp4,green,red,left,Countdown_2.5s.jpg,5,0,5,0,0,3,3,4,,,,,,,,,,,,632.3589963999693,634.844870299974,2.4858739000046626,None,0,-155,,,,,,,,,,,,,,,133,2023-07-16_14h45.48.595,Rewa's Exp,2023.1.2,59.97375548025534,
Countdown_1.5s.mp4,red,green,right,Countdown_1.5s.jpg,5,0,5,0,0,4,4,2,,,,,,,,,,,,638.7477813999867,640.2444994999678,1.4967180999810807,None,0,-157,,,,,,,,,,,,,,,133,2023-07-16_14h45.48.595,Rewa's Exp,2023.1.2,59.97375548025534,
Countdown_2.5s.mp4,red,green,right,Countdown_2.5s.jpg,5,0,5,0,0,5,5,0,,,,,,,,,,,,644.1322939000092,646.6280558999861,2.4957619999768212,None,0,-159,,,,,,,,,,,,,,,133,2023-07-16_14h45.48.595,Rewa's Exp,2023.1.2,59.97375548025534,
Countdown_1.5s.mp4,green,red,left,Countdown_1.5s.jpg,5,0,5,0,,,,,0,0,0,3,,,,,,,,650.5253388999845,652.0107906999765,1.4854517999920063,,,-161,,656.0849342000438,None,0,,,,,,,,,,,133,2023-07-16_14h45.48.595,Rewa's Exp,2023.1.2,59.97375548025534,
Countdown_2s.mp4,green,red,left,Countdown_2s.jpg,5,0,5,0,,,,,0,1,1,5,,,,,,,,655.928456499998,656.8783145999769,0.9498580999788828,,,-160,,661.487586800009,left,1,0.9202803000225686,,,,,,,,,,133,2023-07-16_14h45.48.595,Rewa's Exp,2023.1.2,59.97375548025534,
Countdown_2.5s.mp4,green,red,left,Countdown_2.5s.jpg,5,0,5,0,,,,,0,2,2,4,,,,,,,,660.8077537000063,661.5614640999702,0.753710399963893,,,-159,,666.3673614000436,left,1,0.736762699962128,,,,,,,,,,133,2023-07-16_14h45.48.595,Rewa's Exp,2023.1.2,59.97375548025534,
Countdown_2.5s.mp4,red,green,right,Countdown_2.5s.jpg,5,0,5,0,,,,,0,3,3,0,,,,,,,,665.5162739999942,666.2621747999801,0.745900799985975,,,-158,,671.0758152999915,right,1,0.7243492999696173,,,,,,,,,,133,2023-07-16_14h45.48.595,Rewa's Exp,2023.1.2,59.97375548025534,
Countdown_1.5s.mp4,red,green,right,Countdown_1.5s.jpg,5,0,5,0,,,,,0,4,4,2,,,,,,,,670.1471544000087,670.8619031999842,0.7147487999754958,,,-157,,675.706723899988,right,1,0.685327299986966,,,,,,,,,,133,2023-07-16_14h45.48.595,Rewa's Exp,2023.1.2,59.97375548025534,
Countdown_2s.mp4,red,green,right,Countdown_2s.jpg,5,0,5,0,,,,,0,5,5,1,,,,,,,,674.8435219000094,675.6948674999876,0.8513455999782309,,,-156,,680.4030944000115,right,1,0.8212866000249051,,,,,,,,,,133,2023-07-16_14h45.48.595,Rewa's Exp,2023.1.2,59.97375548025534,
Countdown_1.5s.mp4,green,red,left,Countdown_1.5s.jpg,5,0,5,0,,,,,,,,,0,0,0,3,,,,679.6533703999594,680.7945701999706,1.1411998000112362,,,-155,,,,,,left,1,1.1158835000242107,,,,,,,133,2023-07-16_14h45.48.595,Rewa's Exp,2023.1.2,59.97375548025534,
Countdown_2s.mp4,red,green,right,Countdown_2s.jpg,5,0,5,0,,,,,,,,,0,1,1,1,,,,684.6819050000049,685.2281391000142,0.5462341000093147,,,-154,,,,,,right,1,0.5272333999746479,,,,,,,133,2023-07-16_14h45.48.595,Rewa's Exp,2023.1.2,59.97375548025534,
Countdown_1.5s.mp4,red,green,right,Countdown_1.5s.jpg,5,0,5,0,,,,,,,,,0,2,2,2,,,,689.1474130999995,689.8953818000155,0.7479687000159174,,,-153,,,,,,right,1,0.7165141999721527,,,,,,,133,2023-07-16_14h45.48.595,Rewa's Exp,2023.1.2,59.97375548025534,
Countdown_2s.mp4,green,red,left,Countdown_2s.jpg,5,0,5,0,,,,,,,,,0,3,3,5,,,,693.8215562999831,694.7613493999816,0.9397930999984965,,,-152,,,,,,left,1,0.9072487999801524,,,,,,,133,2023-07-16_14h45.48.595,Rewa's Exp,2023.1.2,59.97375548025534,
Countdown_2.5s.mp4,green,red,left,Countdown_2.5s.jpg,5,0,5,0,,,,,,,,,0,4,4,4,,,,698.6578959999606,699.9112938999897,1.2533979000290856,,,-154,,,,,,right,0,1.2221926000202075,,,,,,,133,2023-07-16_14h45.48.595,Rewa's Exp,2023.1.2,59.97375548025534,
Countdown_2.5s.mp4,red,green,right,Countdown_2.5s.jpg,5,0,5,0,,,,,,,,,0,5,5,0,,,,703.8006406999775,704.7950207999675,0.9943800999899395,,,-153,,,,,,right,1,0.9677187000052072,,,,,,,133,2023-07-16_14h45.48.595,Rewa's Exp,2023.1.2,59.97375548025534,
,,,,,5,0,5,0,,,,,,,,,,,,,,,,,,,,,,,,,,,,,,711.4988418000285,711.4988418000285,711.4988418000285,712.4984617000446,space,3.326471699983813,133,2023-07-16_14h45.48.595,Rewa's Exp,2023.1.2,59.97375548025534,
Countdown_2s.mp4,red,green,right,Countdown_2s.jpg,6,0,6,0,0,0,0,1,,,,,,,,,,,,712.0696824999759,712.6781327999779,0.608450300002005,right,1,-152,0.5785042999777943,,,,,,,,,,,,,,133,2023-07-16_14h45.48.595,Rewa's Exp,2023.1.2,59.97375548025534,
Countdown_2.5s.mp4,green,red,left,Countdown_2.5s.jpg,6,0,6,0,0,1,1,4,,,,,,,,,,,,716.6389658999979,717.411563600006,0.7725977000081912,left,1,-151,0.75351429998409,,,,,,,,,,,,,,133,2023-07-16_14h45.48.595,Rewa's Exp,2023.1.2,59.97375548025534,
Countdown_1.5s.mp4,green,red,left,Countdown_1.5s.jpg,6,0,6,0,0,2,2,3,,,,,,,,,,,,721.3653161000111,721.8448848999687,0.479568799957633,right,0,-153,0.460478900000453,,,,,,,,,,,,,,133,2023-07-16_14h45.48.595,Rewa's Exp,2023.1.2,59.97375548025534,
Countdown_1.5s.mp4,red,green,right,Countdown_1.5s.jpg,6,0,6,0,0,3,3,2,,,,,,,,,,,,725.7586384000024,726.7448692999897,0.9862308999872766,right,1,-152,0.9628120000124909,,,,,,,,,,,,,,133,2023-07-16_14h45.48.595,Rewa's Exp,2023.1.2,59.97375548025534,
Countdown_2.5s.mp4,red,green,right,Countdown_2.5s.jpg,6,0,6,0,0,4,4,0,,,,,,,,,,,,730.6808898000163,731.5281395000056,0.8472496999893337,right,1,-151,0.8149342999677174,,,,,,,,,,,,,,133,2023-07-16_14h45.48.595,Rewa's Exp,2023.1.2,59.97375548025534,
Countdown_2s.mp4,green,red,left,Countdown_2s.jpg,6,0,6,0,0,5,5,5,,,,,,,,,,,,735.4414163999609,736.5280231999932,1.086606800032314,right,0,-153,1.0703650999930687,,,,,,,,,,,,,,133,2023-07-16_14h45.48.595,Rewa's Exp,2023.1.2,59.97375548025534,
Countdown_2.5s.mp4,red,green,right,Countdown_2.5s.jpg,6,0,6,0,,,,,0,0,0,0,,,,,,,,740.4560578999808,741.266120699991,0.8100628000102006,,,-152,,746.0156898000278,right,1,0.7924376999726519,,,,,,,,,,133,2023-07-16_14h45.48.595,Rewa's Exp,2023.1.2,59.97375548025534,
Countdown_1.5s.mp4,red,green,right,Countdown_1.5s.jpg,6,0,6,0,,,,,0,1,1,2,,,,,,,,745.1586831000168,745.7782350999769,0.6195519999600947,,,-151,,750.7182439999888,right,1,0.594435999984853,,,,,,,,,,133,2023-07-16_14h45.48.595,Rewa's Exp,2023.1.2,59.97375548025534,
Countdown_1.5s.mp4,green,red,left,Countdown_1.5s.jpg,6,0,6,0,,,,,0,2,2,3,,,,,,,,749.6775303999893,750.3782502000104,0.7007198000210337,,,-153,,755.2370777000324,right,0,0.6827733000391163,,,,,,,,,,133,2023-07-16_14h45.48.595,Rewa's Exp,2023.1.2,59.97375548025534,
Countdown_2s.mp4,green,red,left,Countdown_2s.jpg,6,0,6,0,,,,,0,3,3,5,,,,,,,,754.2820001000073,755.0115069000167,0.7295068000094034,,,-152,,759.841593899997,left,1,0.7025645999819972,,,,,,,,,,133,2023-07-16_14h45.48.595,Rewa's Exp,2023.1.2,59.97375548025534,
Countdown_2.5s.mp4,green,red,left,Countdown_2.5s.jpg,6,0,6,0,,,,,0,4,4,4,,,,,,,,758.9558224999928,759.7956133999978,0.8397909000050277,,,-151,,764.5154104999965,left,1,0.8132714000530541,,,,,,,,,,133,2023-07-16_14h45.48.595,Rewa's Exp,2023.1.2,59.97375548025534,
Countdown_2s.mp4,red,green,right,Countdown_2s.jpg,6,0,6,0,,,,,0,5,5,1,,,,,,,,763.7181026999606,764.5120718000107,0.7939691000501625,,,-150,,769.2776814000099,right,1,0.7706313999951817,,,,,,,,,,133,2023-07-16_14h45.48.595,Rewa's Exp,2023.1.2,59.97375548025534,
Countdown_2s.mp4,red,green,right,Countdown_2s.jpg,6,0,6,0,,,,,,,,,0,0,0,1,,,,768.4390048999921,769.0781927999924,0.6391879000002518,,,-149,,,,,,right,1,0.6185574000119232,,,,,,,133,2023-07-16_14h45.48.595,Rewa's Exp,2023.1.2,59.97375548025534,
Countdown_2.5s.mp4,green,red,left,Countdown_2.5s.jpg,6,0,6,0,,,,,,,,,0,1,1,4,,,,773.0003360999981,773.6616852000006,0.6613491000025533,,,-151,,,,,,right,0,0.6322075999923982,,,,,,,133,2023-07-16_14h45.48.595,Rewa's Exp,2023.1.2,59.97375548025534,
Countdown_1.5s.mp4,green,red,left,Countdown_1.5s.jpg,6,0,6,0,,,,,,,,,0,2,2,3,,,,777.5531578999944,778.4782896999968,0.9251318000024185,,,-150,,,,,,left,1,0.8948060999973677,,,,,,,133,2023-07-16_14h45.48.595,Rewa's Exp,2023.1.2,59.97375548025534,
Countdown_2s.mp4,green,red,left,Countdown_2s.jpg,6,0,6,0,,,,,,,,,0,3,3,5,,,,782.3902111999923,783.2448897999711,0.8546785999787971,,,-152,,,,,,right,0,0.8348059999989346,,,,,,,133,2023-07-16_14h45.48.595,Rewa's Exp,2023.1.2,59.97375548025534,
Countdown_1.5s.mp4,red,green,right,Countdown_1.5s.jpg,6,0,6,0,,,,,,,,,0,4,4,2,,,,787.1495100000175,787.9618229999905,0.8123129999730736,,,-151,,,,,,right,1,0.795113800035324,,,,,,,133,2023-07-16_14h45.48.595,Rewa's Exp,2023.1.2,59.97375548025534,
Countdown_2.5s.mp4,red,green,right,Countdown_2.5s.jpg,6,0,6,0,,,,,,,,,0,5,5,0,,,,791.9034149000072,792.4616922999849,0.5582773999776691,,,-150,,,,,,right,1,0.5376158999861218,,,,,,,133,2023-07-16_14h45.48.595,Rewa's Exp,2023.1.2,59.97375548025534,
,,,,,6,0,6,0,,,,,,,,,,,,,,,,,,,,,,,,,,,,,,799.1654541000025,799.1654541000025,799.1654541000025,800.1652859000023,space,3.354173199972138,133,2023-07-16_14h45.48.595,Rewa's Exp,2023.1.2,59.97375548025534,
Countdown_1.5s.mp4,green,red,left,Countdown_1.5s.jpg,7,0,7,0,0,0,0,3,,,,,,,,,,,,799.8000565000111,800.3458491999772,0.545792699966114,right,0,-152,0.5132829999784008,,,,,,,,,,,,,,133,2023-07-16_14h45.48.595,Rewa's Exp,2023.1.2,59.97375548025534,
Countdown_1.5s.mp4,red,green,right,Countdown_1.5s.jpg,7,0,7,0,0,1,1,2,,,,,,,,,,,,804.3075022000121,804.961730799987,0.6542285999748856,right,1,-151,0.6301077000098303,,,,,,,,,,,,,,133,2023-07-16_14h45.48.595,Rewa's Exp,2023.1.2,59.97375548025534,
Countdown_2.5s.mp4,green,red,left,Countdown_2.5s.jpg,7,0,7,0,0,2,2,4,,,,,,,,,,,,808.8650023000082,809.4783587999991,0.613356499990914,left,1,-150,0.5828222000272945,,,,,,,,,,,,,,133,2023-07-16_14h45.48.595,Rewa's Exp,2023.1.2,59.97375548025534,
Countdown_2s.mp4,red,green,right,Countdown_2s.jpg,7,0,7,0,0,3,3,1,,,,,,,,,,,,813.3810903999838,814.0783900999813,0.6972996999975294,right,1,-149,0.6762742000282742,,,,,,,,,,,,,,133,2023-07-16_14h45.48.595,Rewa's Exp,2023.1.2,59.97375548025534,
Countdown_2s.mp4,green,red,left,Countdown_2s.jpg,7,0,7,0,0,4,4,5,,,,,,,,,,,,817.9712164999801,818.6783758999663,0.7071593999862671,left,1,-148,0.677445599983912,,,,,,,,,,,,,,133,2023-07-16_14h45.48.595,Rewa's Exp,2023.1.2,59.97375548025534,
Countdown_2.5s.mp4,red,green,right,Countdown_2.5s.jpg,7,0,7,0,0,5,5,0,,,,,,,,,,,,822.6133420999977,823.145192099968,0.5318499999702908,right,1,-147,0.5069969000178389,,,,,,,,,,,,,,133,2023-07-16_14h45.48.595,Rewa's Exp,2023.1.2,59.97375548025534,
Countdown_2s.mp4,green,red,left,Countdown_2s.jpg,7,0,7,0,,,,,0,0,0,5,,,,,,,,827.0674265999696,827.5790630999836,0.5116365000139922,,,-149,,832.6270183000015,right,0,0.4935708999983035,,,,,,,,,,133,2023-07-16_14h45.48.595,Rewa's Exp,2023.1.2,59.97375548025534,
Countdown_2.5s.mp4,red,green,right,Countdown_2.5s.jpg,7,0,7,0,,,,,0,1,1,0,,,,,,,,831.5172063999926,832.1284523999784,0.6112459999858402,,,-148,,837.0768038000097,right,1,0.5786647999775596,,,,,,,,,,133,2023-07-16_14h45.48.595,Rewa's Exp,2023.1.2,59.97375548025534,
Countdown_1.5s.mp4,red,green,right,Countdown_1.5s.jpg,7,0,7,0,,,,,0,2,2,2,,,,,,,,836.0769434999675,836.7784396999632,0.701496199995745,,,-147,,841.6365048000007,right,1,0.6842053000000305,,,,,,,,,,133,2023-07-16_14h45.48.595,Rewa's Exp,2023.1.2,59.97375548025534,
Countdown_2.5s.mp4,green,red,left,Countdown_2.5s.jpg,7,0,7,0,,,,,0,3,3,4,,,,,,,,840.6673195000039,841.3617499999818,0.6944304999778979,,,-146,,846.2269241000176,left,1,0.6621849000221118,,,,,,,,,,133,2023-07-16_14h45.48.595,Rewa's Exp,2023.1.2,59.97375548025534,
Countdown_1.5s.mp4,green,red,left,Countdown_1.5s.jpg,7,0,7,0,,,,,0,4,4,3,,,,,,,,845.2985755999689,845.8121599999722,0.5135844000033103,,,-148,,850.8581408000318,right,0,0.4943764999625273,,,,,,,,,,133,2023-07-16_14h45.48.595,Rewa's Exp,2023.1.2,59.97375548025534,
Countdown_2s.mp4,red,green,right,Countdown_2s.jpg,7,0,7,0,,,,,0,5,5,1,,,,,,,,849.7807081000064,850.378755600017,0.5980475000105798,,,-147,,855.340284600039,right,1,0.5805308999842964,,,,,,,,,,133,2023-07-16_14h45.48.595,Rewa's Exp,2023.1.2,59.97375548025534,
Countdown_2.5s.mp4,green,red,left,Countdown_2.5s.jpg,7,0,7,0,,,,,,,,,0,0,0,4,,,,854.3511967000086,855.0951724000042,0.7439756999956444,,,-146,,,,,,left,1,0.7136227000155486,,,,,,,133,2023-07-16_14h45.48.595,Rewa's Exp,2023.1.2,59.97375548025534,
Countdown_1.5s.mp4,red,green,right,Countdown_1.5s.jpg,7,0,7,0,,,,,,,,,0,1,1,2,,,,858.9902483999613,859.5285173999728,0.5382690000114962,,,-145,,,,,,right,1,0.5064926000195555,,,,,,,133,2023-07-16_14h45.48.595,Rewa's Exp,2023.1.2,59.97375548025534,
Countdown_1.5s.mp4,green,red,left,Countdown_1.5s.jpg,7,0,7,0,,,,,,,,,0,2,2,3,,,,863.4226175000076,864.7449451999855,1.3223276999779046,,,-147,,,,,,right,0,1.2988176999497227,,,,,,,133,2023-07-16_14h45.48.595,Rewa's Exp,2023.1.2,59.97375548025534,
Countdown_2.5s.mp4,red,green,right,Countdown_2.5s.jpg,7,0,7,0,,,,,,,,,0,3,3,0,,,,868.6531413999619,869.2618311999831,0.6086898000212386,,,-146,,,,,,right,1,0.5792152000358328,,,,,,,133,2023-07-16_14h45.48.595,Rewa's Exp,2023.1.2,59.97375548025534,
Countdown_2s.mp4,red,green,right,Countdown_2s.jpg,7,0,7,0,,,,,,,,,0,4,4,1,,,,873.1597714999807,873.6617718999623,0.5020003999816254,,,-145,,,,,,right,1,0.4814069999847561,,,,,,,133,2023-07-16_14h45.48.595,Rewa's Exp,2023.1.2,59.97375548025534,
Countdown_2s.mp4,green,red,left,Countdown_2s.jpg,7,0,7,0,,,,,,,,,0,5,5,5,,,,877.5694867999991,878.178500399983,0.6090135999838822,,,-144,,,,,,left,1,0.5909929999615997,,,,,,,133,2023-07-16_14h45.48.595,Rewa's Exp,2023.1.2,59.97375548025534,
,,,,,7,0,7,0,,,,,,,,,,,,,,,,,,,,,,,,,,,,,,884.8656105000409,884.8656105000409,884.8656105000409,885.8655315000215,space,3.534598600002937,133,2023-07-16_14h45.48.595,Rewa's Exp,2023.1.2,59.97375548025534,
Countdown_1.5s.mp4,green,red,left,Countdown_1.5s.jpg,8,0,8,0,0,0,0,3,,,,,,,,,,,,885.6817267999868,886.3954044000129,0.7136776000261307,left,1,-143,0.6959689999930561,,,,,,,,,,,,,,133,2023-07-16_14h45.48.595,Rewa's Exp,2023.1.2,59.97375548025534,
