Countdown,color1,color2,correct,screenshot,trials.thisRepN,trials.thisTrialN,trials.thisN,trials.thisIndex,trials_6040.thisRepN,trials_6040.thisTrialN,trials_6040.thisN,trials_6040.thisIndex,trials_5743.thisRepN,trials_5743.thisTrialN,trials_5743.thisN,trials_5743.thisIndex,trials_5446.thisRepN,trials_5446.thisTrialN,trials_5446.thisN,trials_5446.thisIndex,DotsshowRT,response.keys,response.corr,response.rt,total_score,Left_3.started,response_2.keys,response_2.rt,response_3.keys,response_3.rt,text_2.started,text_2.stopped,participant,session,date,expName,psychopyVersion,frameRate,
Countdown_2s.mp4,red,green,right,Countdown_2s.jpg,0,0,0,0,0,0,0,1,,,,,,,,,0.9176367002073675,right,1,0.7247146998997778,1,,,,,,,,321945,001,2023-07-12_13h51.45.847,Rewa's Exp,2023.1.2,59.964656799509406,
Countdown_2.5s.mp4,green,red,left,Countdown_2.5s.jpg,0,0,0,0,0,1,1,4,,,,,,,,,2.0340916998684406,left,1,1.1366041000001132,2,,,,,,,,321945,001,2023-07-12_13h51.45.847,Rewa's Exp,2023.1.2,59.964656799509406,
Countdown_2.5s.mp4,red,green,right,Countdown_2.5s.jpg,0,0,0,0,0,2,2,0,,,,,,,,,1.4354520000051707,right,1,0.6778167998418212,3,,,,,,,,321945,001,2023-07-12_13h51.45.847,Rewa's Exp,2023.1.2,59.964656799509406,
Countdown_1.5s.mp4,red,green,right,Countdown_1.5s.jpg,0,0,0,0,0,3,3,2,,,,,,,,,2.1343916999176145,right,1,1.2331512998789549,4,,,,,,,,321945,001,2023-07-12_13h51.45.847,Rewa's Exp,2023.1.2,59.964656799509406,
Countdown_2s.mp4,green,red,left,Countdown_2s.jpg,0,0,0,0,0,4,4,5,,,,,,,,,2.7172618999611586,None,0,,2,,,,,,,,321945,001,2023-07-12_13h51.45.847,Rewa's Exp,2023.1.2,59.964656799509406,
Countdown_1.5s.mp4,green,red,left,Countdown_1.5s.jpg,0,0,0,0,0,5,5,3,,,,,,,,,1.2677388999145478,right,0,0.48372179991565645,0,,,,,,,,321945,001,2023-07-12_13h51.45.847,Rewa's Exp,2023.1.2,59.964656799509406,
Countdown_1.5s.mp4,red,green,right,Countdown_1.5s.jpg,0,0,0,0,,,,,0,0,0,2,,,,,0.8352433000691235,,,,-2,50.909368300111964,left,0.6878119998145849,,,,,321945,001,2023-07-12_13h51.45.847,Rewa's Exp,2023.1.2,59.964656799509406,
Countdown_2s.mp4,green,red,left,Countdown_2s.jpg,0,0,0,0,,,,,0,1,1,5,,,,,1.001500500133261,,,,-4,55.58825230016373,right,0.6553087998181581,,,,,321945,001,2023-07-12_13h51.45.847,Rewa's Exp,2023.1.2,59.964656799509406,
Countdown_1.5s.mp4,green,red,left,Countdown_1.5s.jpg,0,0,0,0,,,,,0,2,2,3,,,,,1.0846657999791205,,,,-6,60.212759900139645,right,0.7426085998304188,,,,,321945,001,2023-07-12_13h51.45.847,Rewa's Exp,2023.1.2,59.964656799509406,
Countdown_2.5s.mp4,red,green,right,Countdown_2.5s.jpg,0,0,0,0,,,,,0,3,3,0,,,,,0.5177788001019508,,,,-8,64.93807959998958,left,0.17035019979812205,,,,,321945,001,2023-07-12_13h51.45.847,Rewa's Exp,2023.1.2,59.964656799509406,
Countdown_2s.mp4,red,green,right,Countdown_2s.jpg,0,0,0,0,,,,,0,4,4,1,,,,,1.5680582001805305,,,,-10,69.13038059999235,right,1.2016390999779105,,,,,321945,001,2023-07-12_13h51.45.847,Rewa's Exp,2023.1.2,59.964656799509406,
Countdown_2.5s.mp4,green,red,left,Countdown_2.5s.jpg,0,0,0,0,,,,,0,5,5,4,,,,,0.7512485000770539,,,,-12,74.30795429996215,right,0.4239152998197824,,,,,321945,001,2023-07-12_13h51.45.847,Rewa's Exp,2023.1.2,59.964656799509406,
,,,,,0,0,0,0,,,,,,,,,0,0,0,0,0.4845229000784457,,,,-14,,,,left,0.32841399987228215,,,321945,001,2023-07-12_13h51.45.847,Rewa's Exp,2023.1.2,59.964656799509406,
,,,,,0,0,0,0,,,,,,,,,1,0,1,0,0.8011078999843448,,,,-16,,,,right,0.4522971997503191,,,321945,001,2023-07-12_13h51.45.847,Rewa's Exp,2023.1.2,59.964656799509406,
,,,,,0,0,0,0,,,,,,,,,2,0,2,0,0.9179528001695871,,,,-18,,,,right,0.582074899924919,,,321945,001,2023-07-12_13h51.45.847,Rewa's Exp,2023.1.2,59.964656799509406,
,,,,,0,0,0,0,,,,,,,,,3,0,3,0,0.6178851998411119,,,,-20,,,,right,0.27288409997709095,,,321945,001,2023-07-12_13h51.45.847,Rewa's Exp,2023.1.2,59.964656799509406,
,,,,,0,0,0,0,,,,,,,,,4,0,4,0,1.0510963001288474,,,,-22,,,,right,0.7002434998285025,,,321945,001,2023-07-12_13h51.45.847,Rewa's Exp,2023.1.2,59.964656799509406,
,,,,,0,0,0,0,,,,,,,,,,,,,,,,,,,,,,,97.87711070012301,98.87944280006923,321945,001,2023-07-12_13h51.45.847,Rewa's Exp,2023.1.2,59.964656799509406,
Countdown_2s.mp4,red,green,right,Countdown_2s.jpg,1,0,1,0,0,0,0,1,,,,,,,,,0.5847489999141544,left,0,0.22035199985839427,-24,,,,,,,,321945,001,2023-07-12_13h51.45.847,Rewa's Exp,2023.1.2,59.964656799509406,
Countdown_2s.mp4,green,red,left,Countdown_2s.jpg,1,0,1,0,0,1,1,5,,,,,,,,,0.7833461000118405,right,0,0.4359213998541236,-26,,,,,,,,321945,001,2023-07-12_13h51.45.847,Rewa's Exp,2023.1.2,59.964656799509406,
Countdown_1.5s.mp4,red,green,right,Countdown_1.5s.jpg,1,0,1,0,0,2,2,2,,,,,,,,,1.182849199976772,right,1,0.8724540998227894,-25,,,,,,,,321945,001,2023-07-12_13h51.45.847,Rewa's Exp,2023.1.2,59.964656799509406,
Countdown_1.5s.mp4,green,red,left,Countdown_1.5s.jpg,1,0,1,0,0,3,3,3,,,,,,,,,1.1010964999441057,left,1,0.7811700000893325,-24,,,,,,,,321945,001,2023-07-12_13h51.45.847,Rewa's Exp,2023.1.2,59.964656799509406,
Countdown_2.5s.mp4,red,green,right,Countdown_2.5s.jpg,1,0,1,0,0,4,4,0,,,,,,,,,0.9848689001519233,right,1,0.659833800047636,-23,,,,,,,,321945,001,2023-07-12_13h51.45.847,Rewa's Exp,2023.1.2,59.964656799509406,
Countdown_2.5s.mp4,green,red,left,Countdown_2.5s.jpg,1,0,1,0,0,5,5,4,,,,,,,,,1.0847138999961317,left,1,0.7384473998099566,-22,,,,,,,,321945,001,2023-07-12_13h51.45.847,Rewa's Exp,2023.1.2,59.964656799509406,
Countdown_1.5s.mp4,red,green,right,Countdown_1.5s.jpg,1,0,1,0,,,,,0,0,0,2,,,,,1.7011185998562723,,,,-24,129.16650569997728,None,,,,,,321945,001,2023-07-12_13h51.45.847,Rewa's Exp,2023.1.2,59.964656799509406,
Countdown_2s.mp4,green,red,left,Countdown_2s.jpg,1,0,1,0,,,,,0,1,1,5,,,,,0.9511803002096713,,,,-26,134.5089372000657,left,0.6076455998700112,,,,,321945,001,2023-07-12_13h51.45.847,Rewa's Exp,2023.1.2,59.964656799509406,
Countdown_2.5s.mp4,red,green,right,Countdown_2.5s.jpg,1,0,1,0,,,,,0,2,2,0,,,,,0.6511915000155568,,,,-28,139.0723529001698,left,0.3319862997159362,,,,,321945,001,2023-07-12_13h51.45.847,Rewa's Exp,2023.1.2,59.964656799509406,
Countdown_2.5s.mp4,green,red,left,Countdown_2.5s.jpg,1,0,1,0,,,,,0,3,3,4,,,,,1.684054700192064,,,,-30,143.40355110005476,left,1.3608611000236124,,,,,321945,001,2023-07-12_13h51.45.847,Rewa's Exp,2023.1.2,59.964656799509406,
Countdown_2s.mp4,red,green,right,Countdown_2s.jpg,1,0,1,0,,,,,0,4,4,1,,,,,1.1365583001170307,,,,-32,148.70255090016872,right,0.8062424999661744,,,,,321945,001,2023-07-12_13h51.45.847,Rewa's Exp,2023.1.2,59.964656799509406,
Countdown_1.5s.mp4,green,red,left,Countdown_1.5s.jpg,1,0,1,0,,,,,0,5,5,3,,,,,1.784995699999854,,,,-34,153.51801560004242,None,,,,,,321945,001,2023-07-12_13h51.45.847,Rewa's Exp,2023.1.2,59.964656799509406,
,,,,,1,0,1,0,,,,,,,,,0,0,0,0,1.1847257998306304,,,,-36,,,,right,0.8242951997090131,,,321945,001,2023-07-12_13h51.45.847,Rewa's Exp,2023.1.2,59.964656799509406,
,,,,,1,0,1,0,,,,,,,,,1,0,1,0,1.617575400043279,,,,-38,,,,None,,,,321945,001,2023-07-12_13h51.45.847,Rewa's Exp,2023.1.2,59.964656799509406,
,,,,,1,0,1,0,,,,,,,,,2,0,2,0,0.9688788999337703,,,,-40,,,,right,0.6414734998252243,,,321945,001,2023-07-12_13h51.45.847,Rewa's Exp,2023.1.2,59.964656799509406,
,,,,,1,0,1,0,,,,,,,,,3,0,3,0,1.0347736000549048,,,,-42,,,,left,0.6712875997181982,,,321945,001,2023-07-12_13h51.45.847,Rewa's Exp,2023.1.2,59.964656799509406,
,,,,,1,0,1,0,,,,,,,,,4,0,4,0,0.801440899958834,,,,-44,,,,right,0.47208729991689324,,,321945,001,2023-07-12_13h51.45.847,Rewa's Exp,2023.1.2,59.964656799509406,
,,,,,1,0,1,0,,,,,,,,,,,,,,,,,,,,,,,179.84380110003985,180.84363040002063,321945,001,2023-07-12_13h51.45.847,Rewa's Exp,2023.1.2,59.964656799509406,
Countdown_2s.mp4,green,red,left,Countdown_2s.jpg,2,0,2,0,0,0,0,5,,,,,,,,,0.9846904000733048,right,0,0.6255729999393225,-46,,,,,,,,321945,001,2023-07-12_13h51.45.847,Rewa's Exp,2023.1.2,59.964656799509406,
Countdown_1.5s.mp4,green,red,left,Countdown_1.5s.jpg,2,0,2,0,0,1,1,3,,,,,,,,,0.871046399930492,left,1,0.49095149990171194,-45,,,,,,,,321945,001,2023-07-12_13h51.45.847,Rewa's Exp,2023.1.2,59.964656799509406,
Countdown_2s.mp4,red,green,right,Countdown_2s.jpg,2,0,2,0,0,2,2,1,,,,,,,,,0.7845683000050485,right,1,0.4453702997416258,-44,,,,,,,,321945,001,2023-07-12_13h51.45.847,Rewa's Exp,2023.1.2,59.964656799509406,
