Countdown,color1,color2,correct,screenshot,trials.thisRepN,trials.thisTrialN,trials.thisN,trials.thisIndex,trials_6040.thisRepN,trials_6040.thisTrialN,trials_6040.thisN,trials_6040.thisIndex,trials_5743.thisRepN,trials_5743.thisTrialN,trials_5743.thisN,trials_5743.thisIndex,trials_5446.thisRepN,trials_5446.thisTrialN,trials_5446.thisN,trials_5446.thisIndex,DotsshowRT,response.keys,response.corr,response.rt,total_score,Left_3.started,response_2.keys,response_2.corr,response_2.rt,response_3.keys,response_3.corr,response_3.rt,text_2.started,text_2.stopped,participant,session,date,expName,psychopyVersion,frameRate,
Countdown_1.5s.mp4,green,red,left,Countdown_1.5s.jpg,0,0,0,0,0,0,0,3,,,,,,,,,0.8856965999584645,right,0,0.6862283998634666,-2,,,,,,,,,,451246,001,2023-07-12_14h02.56.434,Rewa's Exp,2023.1.2,60.02415367975166,
Countdown_2.5s.mp4,green,red,left,Countdown_2.5s.jpg,0,0,0,0,0,1,1,4,,,,,,,,,1.5678430998232216,left,1,0.8033272000029683,-1,,,,,,,,,,451246,001,2023-07-12_14h02.56.434,Rewa's Exp,2023.1.2,60.02415367975166,
Countdown_2.5s.mp4,red,green,right,Countdown_2.5s.jpg,0,0,0,0,0,2,2,0,,,,,,,,,1.5011215000413358,right,1,0.7326438999734819,0,,,,,,,,,,451246,001,2023-07-12_14h02.56.434,Rewa's Exp,2023.1.2,60.02415367975166,
Countdown_2s.mp4,green,red,left,Countdown_2s.jpg,0,0,0,0,0,3,3,5,,,,,,,,,1.6345353000797331,right,0,0.7479081000201404,-2,,,,,,,,,,451246,001,2023-07-12_14h02.56.434,Rewa's Exp,2023.1.2,60.02415367975166,
Countdown_2s.mp4,red,green,right,Countdown_2s.jpg,0,0,0,0,0,4,4,1,,,,,,,,,1.366849600104615,right,1,0.4536919000092894,-1,,,,,,,,,,451246,001,2023-07-12_14h02.56.434,Rewa's Exp,2023.1.2,60.02415367975166,
Countdown_1.5s.mp4,red,green,right,Countdown_1.5s.jpg,0,0,0,0,0,5,5,2,,,,,,,,,1.7843265000265092,right,1,1.0333719002082944,0,,,,,,,,,,451246,001,2023-07-12_14h02.56.434,Rewa's Exp,2023.1.2,60.02415367975166,
Countdown_2.5s.mp4,green,red,left,Countdown_2.5s.jpg,0,0,0,0,,,,,0,0,0,4,,,,,1.5177540997974575,,,,1,45.96582860010676,left,1,1.360114400042221,,,,,,451246,001,2023-07-12_14h02.56.434,Rewa's Exp,2023.1.2,60.02415367975166,
Countdown_1.5s.mp4,red,green,right,Countdown_1.5s.jpg,0,0,0,0,,,,,0,1,1,2,,,,,1.5847660000436008,,,,-1,51.35867210011929,left,0,1.207525699865073,,,,,,451246,001,2023-07-12_14h02.56.434,Rewa's Exp,2023.1.2,60.02415367975166,
Countdown_2.5s.mp4,red,green,right,Countdown_2.5s.jpg,0,0,0,0,,,,,0,2,2,0,,,,,1.1021151000168175,,,,0,56.55192829994485,right,1,0.7582901001442224,,,,,,451246,001,2023-07-12_14h02.56.434,Rewa's Exp,2023.1.2,60.02415367975166,
Countdown_1.5s.mp4,green,red,left,Countdown_1.5s.jpg,0,0,0,0,,,,,0,3,3,3,,,,,1.2677081997971982,,,,1,61.330404200125486,left,1,0.8997115001548082,,,,,,451246,001,2023-07-12_14h02.56.434,Rewa's Exp,2023.1.2,60.02415367975166,
Countdown_2s.mp4,green,red,left,Countdown_2s.jpg,0,0,0,0,,,,,0,4,4,5,,,,,1.251170099945739,,,,2,66.1966944001615,left,1,0.9129972001537681,,,,,,451246,001,2023-07-12_14h02.56.434,Rewa's Exp,2023.1.2,60.02415367975166,
Countdown_2s.mp4,red,green,right,Countdown_2s.jpg,0,0,0,0,,,,,0,5,5,1,,,,,1.4009936999063939,,,,3,71.11548499995843,right,1,1.0182074999902397,,,,,,451246,001,2023-07-12_14h02.56.434,Rewa's Exp,2023.1.2,60.02415367975166,
,,,,,0,0,0,0,,,,,,,,,0,0,0,0,1.5341517000924796,,,,4,,,,,right,1,1.3821556000038981,,,451246,001,2023-07-12_14h02.56.434,Rewa's Exp,2023.1.2,60.02415367975166,
,,,,,0,0,0,0,,,,,,,,,1,0,1,0,1.8182087999302894,,,,5,,,,,right,1,1.466695100069046,,,451246,001,2023-07-12_14h02.56.434,Rewa's Exp,2023.1.2,60.02415367975166,
,,,,,0,0,0,0,,,,,,,,,2,0,2,0,1.8844620999880135,,,,3,,,,,left,0,1.5447358000092208,,,451246,001,2023-07-12_14h02.56.434,Rewa's Exp,2023.1.2,60.02415367975166,
,,,,,0,0,0,0,,,,,,,,,3,0,3,0,1.0843845000490546,,,,4,,,,,right,1,0.778442099923268,,,451246,001,2023-07-12_14h02.56.434,Rewa's Exp,2023.1.2,60.02415367975166,
,,,,,0,0,0,0,,,,,,,,,4,0,4,0,1.5342299998737872,,,,2,,,,,left,0,1.1887153999414295,,,451246,001,2023-07-12_14h02.56.434,Rewa's Exp,2023.1.2,60.02415367975166,
,,,,,0,0,0,0,,,,,,,,,,,,,,,,,,,,,,,,,99.302038700087,,451246,001,2023-07-12_14h02.56.434,Rewa's Exp,2023.1.2,60.02415367975166,
Countdown_1.5s.mp4,red,green,right,Countdown_1.5s.jpg,1,0,1,0,0,0,0,2,,,,,,,,,1.4011188000440598,right,1,1.0516379999462515,3,,,,,,,,,,451246,001,2023-07-12_14h02.56.434,Rewa's Exp,2023.1.2,60.02415367975166,
Countdown_2.5s.mp4,green,red,left,Countdown_2.5s.jpg,1,0,1,0,0,1,1,4,,,,,,,,,2.801097299903631,None,0,,1,,,,,,,,,,451246,001,2023-07-12_14h02.56.434,Rewa's Exp,2023.1.2,60.02415367975166,
Countdown_2s.mp4,green,red,left,Countdown_2s.jpg,1,0,1,0,0,2,2,5,,,,,,,,,2.3010839000344276,None,0,,-1,,,,,,,,,,451246,001,2023-07-12_14h02.56.434,Rewa's Exp,2023.1.2,60.02415367975166,
Countdown_2.5s.mp4,red,green,right,Countdown_2.5s.jpg,1,0,1,0,0,3,3,0,,,,,,,,,2.8676638999022543,None,0,,-3,,,,,,,,,,451246,001,2023-07-12_14h02.56.434,Rewa's Exp,2023.1.2,60.02415367975166,
Countdown_1.5s.mp4,green,red,left,Countdown_1.5s.jpg,1,0,1,0,0,4,4,3,,,,,,,,,1.8842579999472946,None,0,,-5,,,,,,,,,,451246,001,2023-07-12_14h02.56.434,Rewa's Exp,2023.1.2,60.02415367975166,
Countdown_2s.mp4,red,green,right,Countdown_2s.jpg,1,0,1,0,0,5,5,1,,,,,,,,,2.3176744000520557,None,0,,-7,,,,,,,,,,451246,001,2023-07-12_14h02.56.434,Rewa's Exp,2023.1.2,60.02415367975166,
Countdown_2.5s.mp4,red,green,right,Countdown_2.5s.jpg,1,0,1,0,,,,,0,0,0,0,,,,,2.868086199974641,,,,-9,138.42401270009577,None,0,,,,,,,451246,001,2023-07-12_14h02.56.434,Rewa's Exp,2023.1.2,60.02415367975166,
Countdown_1.5s.mp4,red,green,right,Countdown_1.5s.jpg,1,0,1,0,,,,,0,1,1,2,,,,,1.6844538999721408,,,,-11,144.94315230008215,None,0,,,,,,,451246,001,2023-07-12_14h02.56.434,Rewa's Exp,2023.1.2,60.02415367975166,
Countdown_2.5s.mp4,green,red,left,Countdown_2.5s.jpg,1,0,1,0,,,,,0,2,2,4,,,,,2.8174974999856204,,,,-13,150.26919380016625,None,0,,,,,,,451246,001,2023-07-12_14h02.56.434,Rewa's Exp,2023.1.2,60.02415367975166,
Countdown_2s.mp4,green,red,left,Countdown_2s.jpg,1,0,1,0,,,,,0,3,3,5,,,,,2.3508802000433207,,,,-15,156.6932890000753,None,0,,,,,,,451246,001,2023-07-12_14h02.56.434,Rewa's Exp,2023.1.2,60.02415367975166,
Countdown_2s.mp4,red,green,right,Countdown_2s.jpg,1,0,1,0,,,,,0,4,4,1,,,,,2.3345143999904394,,,,-17,162.65372940013185,None,0,,,,,,,451246,001,2023-07-12_14h02.56.434,Rewa's Exp,2023.1.2,60.02415367975166,
Countdown_1.5s.mp4,green,red,left,Countdown_1.5s.jpg,1,0,1,0,,,,,0,5,5,3,,,,,1.6845255000516772,,,,-19,168.64036620012484,None,0,,,,,,,451246,001,2023-07-12_14h02.56.434,Rewa's Exp,2023.1.2,60.02415367975166,
,,,,,1,0,1,0,,,,,,,,,0,0,0,0,1.6511774000246078,,,,-21,,,,,None,0,,,,451246,001,2023-07-12_14h02.56.434,Rewa's Exp,2023.1.2,60.02415367975166,
,,,,,1,0,1,0,,,,,,,,,1,0,1,0,1.6843721000477672,,,,-23,,,,,None,0,,,,451246,001,2023-07-12_14h02.56.434,Rewa's Exp,2023.1.2,60.02415367975166,
,,,,,1,0,1,0,,,,,,,,,2,0,2,0,1.6510360999964178,,,,-25,,,,,None,0,,,,451246,001,2023-07-12_14h02.56.434,Rewa's Exp,2023.1.2,60.02415367975166,
,,,,,1,0,1,0,,,,,,,,,3,0,3,0,1.8677621001843363,,,,-27,,,,,None,0,,,,451246,001,2023-07-12_14h02.56.434,Rewa's Exp,2023.1.2,60.02415367975166,
,,,,,1,0,1,0,,,,,,,,,4,0,4,0,1.6510342999827117,,,,-29,,,,,None,0,,,,451246,001,2023-07-12_14h02.56.434,Rewa's Exp,2023.1.2,60.02415367975166,
,,,,,1,0,1,0,,,,,,,,,,,,,,,,,,,,,,,,,197.75205130013637,198.7521573000122,451246,001,2023-07-12_14h02.56.434,Rewa's Exp,2023.1.2,60.02415367975166,
Countdown_2s.mp4,green,red,left,Countdown_2s.jpg,2,0,2,0,0,0,0,5,,,,,,,,,2.3675431001465768,None,0,,-31,,,,,,,,,,451246,001,2023-07-12_14h02.56.434,Rewa's Exp,2023.1.2,60.02415367975166,
Countdown_2s.mp4,red,green,right,Countdown_2s.jpg,2,0,2,0,0,1,1,1,,,,,,,,,2.184374599950388,None,0,,-33,,,,,,,,,,451246,001,2023-07-12_14h02.56.434,Rewa's Exp,2023.1.2,60.02415367975166,
Countdown_2.5s.mp4,green,red,left,Countdown_2.5s.jpg,2,0,2,0,0,2,2,4,,,,,,,,,2.867465900024399,None,0,,-35,,,,,,,,,,451246,001,2023-07-12_14h02.56.434,Rewa's Exp,2023.1.2,60.02415367975166,
Countdown_1.5s.mp4,red,green,right,Countdown_1.5s.jpg,2,0,2,0,0,3,3,2,,,,,,,,,1.6843628000933677,None,0,,-37,,,,,,,,,,451246,001,2023-07-12_14h02.56.434,Rewa's Exp,2023.1.2,60.02415367975166,
Countdown_1.5s.mp4,green,red,left,Countdown_1.5s.jpg,2,0,2,0,0,4,4,3,,,,,,,,,1.8343494001310319,None,0,,-39,,,,,,,,,,451246,001,2023-07-12_14h02.56.434,Rewa's Exp,2023.1.2,60.02415367975166,
Countdown_2.5s.mp4,red,green,right,Countdown_2.5s.jpg,2,0,2,0,0,5,5,0,,,,,,,,,2.6506730001419783,None,0,,-41,,,,,,,,,,451246,001,2023-07-12_14h02.56.434,Rewa's Exp,2023.1.2,60.02415367975166,
Countdown_2s.mp4,red,green,right,Countdown_2s.jpg,2,0,2,0,,,,,0,0,0,1,,,,,2.3676346000283957,,,,-43,236.90188900008798,None,0,,,,,,,451246,001,2023-07-12_14h02.56.434,Rewa's Exp,2023.1.2,60.02415367975166,
Countdown_2.5s.mp4,red,green,right,Countdown_2.5s.jpg,2,0,2,0,,,,,0,1,1,0,,,,,2.851376499980688,,,,-45,242.8624108999502,None,0,,,,,,,451246,001,2023-07-12_14h02.56.434,Rewa's Exp,2023.1.2,60.02415367975166,
Countdown_2.5s.mp4,green,red,left,Countdown_2.5s.jpg,2,0,2,0,,,,,0,2,2,4,,,,,2.6677327998913825,,,,-47,249.39887779997662,None,0,,,,,,,451246,001,2023-07-12_14h02.56.434,Rewa's Exp,2023.1.2,60.02415367975166,
Countdown_2s.mp4,green,red,left,Countdown_2s.jpg,2,0,2,0,,,,,0,3,3,5,,,,,2.350909400032833,,,,-49,255.64957560016774,None,0,,,,,,,451246,001,2023-07-12_14h02.56.434,Rewa's Exp,2023.1.2,60.02415367975166,
Countdown_1.5s.mp4,red,green,right,Countdown_1.5s.jpg,2,0,2,0,,,,,0,4,4,2,,,,,1.8678458000067621,,,,-51,261.6148049000185,None,0,,,,,,,451246,001,2023-07-12_14h02.56.434,Rewa's Exp,2023.1.2,60.02415367975166,
Countdown_1.5s.mp4,green,red,left,Countdown_1.5s.jpg,2,0,2,0,,,,,0,5,5,3,,,,,1.867399499984458,,,,-53,267.0980831000488,None,0,,,,,,,451246,001,2023-07-12_14h02.56.434,Rewa's Exp,2023.1.2,60.02415367975166,
,,,,,2,0,2,0,,,,,,,,,0,0,0,0,1.6341540000867099,,,,-55,,,,,None,0,,,,451246,001,2023-07-12_14h02.56.434,Rewa's Exp,2023.1.2,60.02415367975166,
,,,,,2,0,2,0,,,,,,,,,1,0,1,0,1.6674973999615759,,,,-57,,,,,None,0,,,,451246,001,2023-07-12_14h02.56.434,Rewa's Exp,2023.1.2,60.02415367975166,
,,,,,2,0,2,0,,,,,,,,,2,0,2,0,1.6345374998636544,,,,-59,,,,,None,0,,,,451246,001,2023-07-12_14h02.56.434,Rewa's Exp,2023.1.2,60.02415367975166,
,,,,,2,0,2,0,,,,,,,,,3,0,3,0,1.701314500067383,,,,-61,,,,,None,0,,,,451246,001,2023-07-12_14h02.56.434,Rewa's Exp,2023.1.2,60.02415367975166,
,,,,,2,0,2,0,,,,,,,,,4,0,4,0,1.6843743999488652,,,,-63,,,,,None,0,,,,451246,001,2023-07-12_14h02.56.434,Rewa's Exp,2023.1.2,60.02415367975166,
,,,,,2,0,2,0,,,,,,,,,,,,,,,,,,,,,,,,,296.2520723999478,297.252039300045,451246,001,2023-07-12_14h02.56.434,Rewa's Exp,2023.1.2,60.02415367975166,
Countdown_1.5s.mp4,red,green,right,Countdown_1.5s.jpg,3,0,3,0,0,0,0,2,,,,,,,,,1.8841803998220712,None,0,,-65,,,,,,,,,,451246,001,2023-07-12_14h02.56.434,Rewa's Exp,2023.1.2,60.02415367975166,
Countdown_2.5s.mp4,green,red,left,Countdown_2.5s.jpg,3,0,3,0,0,1,1,4,,,,,,,,,2.651027400046587,None,0,,-67,,,,,,,,,,451246,001,2023-07-12_14h02.56.434,Rewa's Exp,2023.1.2,60.02415367975166,
Countdown_2s.mp4,red,green,right,Countdown_2s.jpg,3,0,3,0,0,2,2,1,,,,,,,,,2.3510592998936772,None,0,,-69,,,,,,,,,,451246,001,2023-07-12_14h02.56.434,Rewa's Exp,2023.1.2,60.02415367975166,
Countdown_2.5s.mp4,red,green,right,Countdown_2.5s.jpg,3,0,3,0,0,3,3,0,,,,,,,,,2.667691399808973,None,0,,-71,,,,,,,,,,451246,001,2023-07-12_14h02.56.434,Rewa's Exp,2023.1.2,60.02415367975166,
Countdown_2s.mp4,green,red,left,Countdown_2s.jpg,3,0,3,0,0,4,4,5,,,,,,,,,2.184514499967918,None,0,,-73,,,,,,,,,,451246,001,2023-07-12_14h02.56.434,Rewa's Exp,2023.1.2,60.02415367975166,
Countdown_1.5s.mp4,green,red,left,Countdown_1.5s.jpg,3,0,3,0,0,5,5,3,,,,,,,,,1.8674104998353869,None,0,,-75,,,,,,,,,,451246,001,2023-07-12_14h02.56.434,Rewa's Exp,2023.1.2,60.02415367975166,
Countdown_1.5s.mp4,red,green,right,Countdown_1.5s.jpg,3,0,3,0,,,,,0,0,0,2,,,,,1.6509964000433683,,,,-77,335.40513060009107,None,0,,,,,,,451246,001,2023-07-12_14h02.56.434,Rewa's Exp,2023.1.2,60.02415367975166,
Countdown_2.5s.mp4,green,red,left,Countdown_2.5s.jpg,3,0,3,0,,,,,0,1,1,4,,,,,2.850661699892953,,,,-79,340.6381578000728,None,0,,,,,,,451246,001,2023-07-12_14h02.56.434,Rewa's Exp,2023.1.2,60.02415367975166,
Countdown_2s.mp4,red,green,right,Countdown_2s.jpg,3,0,3,0,,,,,0,2,2,1,,,,,2.1677673999220133,,,,-81,347.16178580000997,None,0,,,,,,,451246,001,2023-07-12_14h02.56.434,Rewa's Exp,2023.1.2,60.02415367975166,
Countdown_1.5s.mp4,green,red,left,Countdown_1.5s.jpg,3,0,3,0,,,,,0,3,3,3,,,,,1.8676243000663817,,,,-83,352.93309740000404,None,0,,,,,,,451246,001,2023-07-12_14h02.56.434,Rewa's Exp,2023.1.2,60.02415367975166,
Countdown_2s.mp4,green,red,left,Countdown_2s.jpg,3,0,3,0,,,,,0,4,4,5,,,,,2.1679238001815975,,,,-85,358.4463462000713,None,0,,,,,,,451246,001,2023-07-12_14h02.56.434,Rewa's Exp,2023.1.2,60.02415367975166,
Countdown_2.5s.mp4,red,green,right,Countdown_2.5s.jpg,3,0,3,0,,,,,0,5,5,0,,,,,2.8672886001877487,,,,-87,364.2086623001378,None,0,,,,,,,451246,001,2023-07-12_14h02.56.434,Rewa's Exp,2023.1.2,60.02415367975166,
,,,,,3,0,3,0,,,,,,,,,0,0,0,0,2.6678274001460522,,,,-89,,,,,None,0,,,,451246,001,2023-07-12_14h02.56.434,Rewa's Exp,2023.1.2,60.02415367975166,
,,,,,3,0,3,0,,,,,,,,,1,0,1,0,2.7179171999450773,,,,-91,,,,,None,0,,,,451246,001,2023-07-12_14h02.56.434,Rewa's Exp,2023.1.2,60.02415367975166,
,,,,,3,0,3,0,,,,,,,,,2,0,2,0,2.8508660001680255,,,,-93,,,,,None,0,,,,451246,001,2023-07-12_14h02.56.434,Rewa's Exp,2023.1.2,60.02415367975166,
,,,,,3,0,3,0,,,,,,,,,3,0,3,0,2.867115199798718,,,,-95,,,,,None,0,,,,451246,001,2023-07-12_14h02.56.434,Rewa's Exp,2023.1.2,60.02415367975166,
,,,,,3,0,3,0,,,,,,,,,4,0,4,0,2.8351710001006722,,,,-97,,,,,None,0,,,,451246,001,2023-07-12_14h02.56.434,Rewa's Exp,2023.1.2,60.02415367975166,
,,,,,3,0,3,0,,,,,,,,,,,,,,,,,,,,,,,,,399.9687624000944,400.9690753000323,451246,001,2023-07-12_14h02.56.434,Rewa's Exp,2023.1.2,60.02415367975166,
Countdown_2s.mp4,green,red,left,Countdown_2s.jpg,4,0,4,0,0,0,0,5,,,,,,,,,2.3845468000508845,None,0,,-99,,,,,,,,,,451246,001,2023-07-12_14h02.56.434,Rewa's Exp,2023.1.2,60.02415367975166,
Countdown_2.5s.mp4,green,red,left,Countdown_2.5s.jpg,4,0,4,0,0,1,1,4,,,,,,,,,2.6677369999233633,None,0,,-101,,,,,,,,,,451246,001,2023-07-12_14h02.56.434,Rewa's Exp,2023.1.2,60.02415367975166,
Countdown_1.5s.mp4,green,red,left,Countdown_1.5s.jpg,4,0,4,0,0,2,2,3,,,,,,,,,1.6674834999721497,None,0,,-103,,,,,,,,,,451246,001,2023-07-12_14h02.56.434,Rewa's Exp,2023.1.2,60.02415367975166,
Countdown_1.5s.mp4,red,green,right,Countdown_1.5s.jpg,4,0,4,0,0,3,3,2,,,,,,,,,1.6675994999241084,None,0,,-105,,,,,,,,,,451246,001,2023-07-12_14h02.56.434,Rewa's Exp,2023.1.2,60.02415367975166,
Countdown_2s.mp4,red,green,right,Countdown_2s.jpg,4,0,4,0,0,4,4,1,,,,,,,,,2.334315299987793,None,0,,-107,,,,,,,,,,451246,001,2023-07-12_14h02.56.434,Rewa's Exp,2023.1.2,60.02415367975166,
Countdown_2.5s.mp4,red,green,right,Countdown_2.5s.jpg,4,0,4,0,0,5,5,0,,,,,,,,,2.8676812001504004,None,0,,-109,,,,,,,,,,451246,001,2023-07-12_14h02.56.434,Rewa's Exp,2023.1.2,60.02415367975166,
Countdown_2s.mp4,green,red,left,Countdown_2s.jpg,4,0,4,0,,,,,0,0,0,5,,,,,2.3342174999415874,,,,-111,439.1170004999731,None,0,,,,,,,451246,001,2023-07-12_14h02.56.434,Rewa's Exp,2023.1.2,60.02415367975166,
Countdown_1.5s.mp4,red,green,right,Countdown_1.5s.jpg,4,0,4,0,,,,,0,1,1,2,,,,,0.9511279000435024,,,,-110,445.0896099000238,right,1,0.6195837000850588,,,,,,451246,001,2023-07-12_14h02.56.434,Rewa's Exp,2023.1.2,60.02415367975166,
Countdown_2s.mp4,red,green,right,Countdown_2s.jpg,4,0,4,0,,,,,0,2,2,1,,,,,1.9012379001360387,,,,-112,449.7075273001101,left,0,1.5468037000391632,,,,,,451246,001,2023-07-12_14h02.56.434,Rewa's Exp,2023.1.2,60.02415367975166,
Countdown_2.5s.mp4,red,green,right,Countdown_2.5s.jpg,4,0,4,0,,,,,0,3,3,0,,,,,2.284515399951488,,,,-114,455.25214190012775,left,0,1.922131400089711,,,,,,451246,001,2023-07-12_14h02.56.434,Rewa's Exp,2023.1.2,60.02415367975166,
Countdown_2.5s.mp4,green,red,left,Countdown_2.5s.jpg,4,0,4,0,,,,,0,4,4,4,,,,,2.7510479998309165,,,,-116,461.0991365001537,None,0,,,,,,,451246,001,2023-07-12_14h02.56.434,Rewa's Exp,2023.1.2,60.02415367975166,
Countdown_1.5s.mp4,green,red,left,Countdown_1.5s.jpg,4,0,4,0,,,,,0,5,5,3,,,,,1.634097300004214,,,,-118,467.4806397999637,None,0,,,,,,,451246,001,2023-07-12_14h02.56.434,Rewa's Exp,2023.1.2,60.02415367975166,
,,,,,4,0,4,0,,,,,,,,,0,0,0,0,1.9007551001850516,,,,-120,,,,,None,0,,,,451246,001,2023-07-12_14h02.56.434,Rewa's Exp,2023.1.2,60.02415367975166,
,,,,,4,0,4,0,,,,,,,,,1,0,1,0,1.784721399890259,,,,-122,,,,,None,0,,,,451246,001,2023-07-12_14h02.56.434,Rewa's Exp,2023.1.2,60.02415367975166,
,,,,,4,0,4,0,,,,,,,,,2,0,2,0,1.8844922999851406,,,,-124,,,,,None,0,,,,451246,001,2023-07-12_14h02.56.434,Rewa's Exp,2023.1.2,60.02415367975166,
,,,,,4,0,4,0,,,,,,,,,3,0,3,0,1.650256299879402,,,,-126,,,,,None,0,,,,451246,001,2023-07-12_14h02.56.434,Rewa's Exp,2023.1.2,60.02415367975166,
,,,,,4,0,4,0,,,,,,,,,4,0,4,0,1.6842102000955492,,,,-128,,,,,None,0,,,,451246,001,2023-07-12_14h02.56.434,Rewa's Exp,2023.1.2,60.02415367975166,
,,,,,4,0,4,0,,,,,,,,,,,,,,,,,,,,,,,,,496.9520606000442,,451246,001,2023-07-12_14h02.56.434,Rewa's Exp,2023.1.2,60.02415367975166,
Countdown_2s.mp4,red,green,right,Countdown_2s.jpg,5,0,5,0,0,0,0,1,,,,,,,,,2.168528900016099,None,0,,-130,,,,,,,,,,451246,001,2023-07-12_14h02.56.434,Rewa's Exp,2023.1.2,60.02415367975166,
Countdown_2.5s.mp4,green,red,left,Countdown_2.5s.jpg,5,0,5,0,0,1,1,4,,,,,,,,,2.8511087000370026,None,0,,-132,,,,,,,,,,451246,001,2023-07-12_14h02.56.434,Rewa's Exp,2023.1.2,60.02415367975166,
Countdown_1.5s.mp4,red,green,right,Countdown_1.5s.jpg,5,0,5,0,0,2,2,2,,,,,,,,,1.8678288999944925,None,0,,-134,,,,,,,,,,451246,001,2023-07-12_14h02.56.434,Rewa's Exp,2023.1.2,60.02415367975166,
Countdown_2.5s.mp4,red,green,right,Countdown_2.5s.jpg,5,0,5,0,0,3,3,0,,,,,,,,,2.667954199947417,None,0,,-136,,,,,,,,,,451246,001,2023-07-12_14h02.56.434,Rewa's Exp,2023.1.2,60.02415367975166,
Countdown_1.5s.mp4,green,red,left,Countdown_1.5s.jpg,5,0,5,0,0,4,4,3,,,,,,,,,1.6507253998424858,None,0,,-138,,,,,,,,,,451246,001,2023-07-12_14h02.56.434,Rewa's Exp,2023.1.2,60.02415367975166,
Countdown_2s.mp4,green,red,left,Countdown_2s.jpg,5,0,5,0,0,5,5,5,,,,,,,,,2.3343098999466747,None,0,,-140,,,,,,,,,,451246,001,2023-07-12_14h02.56.434,Rewa's Exp,2023.1.2,60.02415367975166,
Countdown_2s.mp4,green,red,left,Countdown_2s.jpg,5,0,5,0,,,,,0,0,0,5,,,,,2.350914599839598,,,,-142,536.0600799000822,None,0,,,,,,,451246,001,2023-07-12_14h02.56.434,Rewa's Exp,2023.1.2,60.02415367975166,
Countdown_2s.mp4,red,green,right,Countdown_2s.jpg,5,0,5,0,,,,,0,1,1,1,,,,,2.367098899791017,,,,-144,542.0304562000092,None,0,,,,,,,451246,001,2023-07-12_14h02.56.434,Rewa's Exp,2023.1.2,60.02415367975166,
Countdown_1.5s.mp4,green,red,left,Countdown_1.5s.jpg,5,0,5,0,,,,,0,2,2,3,,,,,1.6846137000247836,,,,-146,547.9807899999432,None,0,,,,,,,451246,001,2023-07-12_14h02.56.434,Rewa's Exp,2023.1.2,60.02415367975166,
Countdown_2.5s.mp4,green,red,left,Countdown_2.5s.jpg,5,0,5,0,,,,,0,3,3,4,,,,,2.667898799991235,,,,-148,553.3616902001668,None,0,,,,,,,451246,001,2023-07-12_14h02.56.434,Rewa's Exp,2023.1.2,60.02415367975166,
Countdown_1.5s.mp4,red,green,right,Countdown_1.5s.jpg,5,0,5,0,,,,,0,4,4,2,,,,,1.667824000120163,,,,-150,559.657456099987,None,0,,,,,,,451246,001,2023-07-12_14h02.56.434,Rewa's Exp,2023.1.2,60.02415367975166,
Countdown_2.5s.mp4,red,green,right,Countdown_2.5s.jpg,5,0,5,0,,,,,0,5,5,0,,,,,2.867983700009063,,,,-152,564.9056482999586,None,0,,,,,,,451246,001,2023-07-12_14h02.56.434,Rewa's Exp,2023.1.2,60.02415367975166,
,,,,,5,0,5,0,,,,,,,,,0,0,0,0,2.7003021999262273,,,,-154,,,,,None,0,,,,451246,001,2023-07-12_14h02.56.434,Rewa's Exp,2023.1.2,60.02415367975166,
,,,,,5,0,5,0,,,,,,,,,1,0,1,0,2.7011843000072986,,,,-156,,,,,None,0,,,,451246,001,2023-07-12_14h02.56.434,Rewa's Exp,2023.1.2,60.02415367975166,
,,,,,5,0,5,0,,,,,,,,,2,0,2,0,2.684283399954438,,,,-158,,,,,None,0,,,,451246,001,2023-07-12_14h02.56.434,Rewa's Exp,2023.1.2,60.02415367975166,
,,,,,5,0,5,0,,,,,,,,,3,0,3,0,2.867816099897027,,,,-160,,,,,None,0,,,,451246,001,2023-07-12_14h02.56.434,Rewa's Exp,2023.1.2,60.02415367975166,
,,,,,5,0,5,0,,,,,,,,,4,0,4,0,2.6844118000008166,,,,-162,,,,,None,0,,,,451246,001,2023-07-12_14h02.56.434,Rewa's Exp,2023.1.2,60.02415367975166,
,,,,,5,0,5,0,,,,,,,,,,,,,,,,,,,,,,,,,600.3520939999726,601.3521060999483,451246,001,2023-07-12_14h02.56.434,Rewa's Exp,2023.1.2,60.02415367975166,
Countdown_2s.mp4,red,green,right,Countdown_2s.jpg,6,0,6,0,0,0,0,1,,,,,,,,,2.384275699965656,None,0,,-164,,,,,,,,,,451246,001,2023-07-12_14h02.56.434,Rewa's Exp,2023.1.2,60.02415367975166,
Countdown_1.5s.mp4,green,red,left,Countdown_1.5s.jpg,6,0,6,0,0,1,1,3,,,,,,,,,1.884210999822244,None,0,,-166,,,,,,,,,,451246,001,2023-07-12_14h02.56.434,Rewa's Exp,2023.1.2,60.02415367975166,
Countdown_2.5s.mp4,red,green,right,Countdown_2.5s.jpg,6,0,6,0,0,2,2,0,,,,,,,,,2.684355500154197,None,0,,-168,,,,,,,,,,451246,001,2023-07-12_14h02.56.434,Rewa's Exp,2023.1.2,60.02415367975166,
Countdown_2s.mp4,green,red,left,Countdown_2s.jpg,6,0,6,0,0,3,3,5,,,,,,,,,2.166882599936798,None,0,,-170,,,,,,,,,,451246,001,2023-07-12_14h02.56.434,Rewa's Exp,2023.1.2,60.02415367975166,
Countdown_1.5s.mp4,red,green,right,Countdown_1.5s.jpg,6,0,6,0,0,4,4,2,,,,,,,,,1.8677906000521034,None,0,,-172,,,,,,,,,,451246,001,2023-07-12_14h02.56.434,Rewa's Exp,2023.1.2,60.02415367975166,
Countdown_2.5s.mp4,green,red,left,Countdown_2.5s.jpg,6,0,6,0,0,5,5,4,,,,,,,,,2.6630739998072386,None,0,,-174,,,,,,,,,,451246,001,2023-07-12_14h02.56.434,Rewa's Exp,2023.1.2,60.02415367975166,
Countdown_2s.mp4,green,red,left,Countdown_2s.jpg,6,0,6,0,,,,,0,0,0,5,,,,,2.3185855001211166,,,,-176,639.5620643000584,None,0,,,,,,,451246,001,2023-07-12_14h02.56.434,Rewa's Exp,2023.1.2,60.02415367975166,
Countdown_2s.mp4,red,green,right,Countdown_2s.jpg,6,0,6,0,,,,,0,1,1,1,,,,,2.3843724001199007,,,,-178,645.4457122001331,None,0,,,,,,,451246,001,2023-07-12_14h02.56.434,Rewa's Exp,2023.1.2,60.02415367975166,
Countdown_2.5s.mp4,green,red,left,Countdown_2.5s.jpg,6,0,6,0,,,,,0,2,2,4,,,,,2.684448700165376,,,,-180,651.4749064999633,None,0,,,,,,,451246,001,2023-07-12_14h02.56.434,Rewa's Exp,2023.1.2,60.02415367975166,
Countdown_1.5s.mp4,green,red,left,Countdown_1.5s.jpg,6,0,6,0,,,,,0,3,3,3,,,,,1.6679704999551177,,,,-182,657.7755971001461,None,0,,,,,,,451246,001,2023-07-12_14h02.56.434,Rewa's Exp,2023.1.2,60.02415367975166,
Countdown_2.5s.mp4,red,green,right,Countdown_2.5s.jpg,6,0,6,0,,,,,0,4,4,0,,,,,2.6843534000217915,,,,-184,663.0745506000239,None,0,,,,,,,451246,001,2023-07-12_14h02.56.434,Rewa's Exp,2023.1.2,60.02415367975166,
Countdown_1.5s.mp4,red,green,right,Countdown_1.5s.jpg,6,0,6,0,,,,,0,5,5,2,,,,,1.8676173000130802,,,,-186,669.3773932000622,None,0,,,,,,,451246,001,2023-07-12_14h02.56.434,Rewa's Exp,2023.1.2,60.02415367975166,
,,,,,6,0,6,0,,,,,,,,,0,0,0,0,1.8012338001281023,,,,-188,,,,,None,0,,,,451246,001,2023-07-12_14h02.56.434,Rewa's Exp,2023.1.2,60.02415367975166,
,,,,,6,0,6,0,,,,,,,,,1,0,1,0,1.6354725998826325,,,,-190,,,,,None,0,,,,451246,001,2023-07-12_14h02.56.434,Rewa's Exp,2023.1.2,60.02415367975166,
,,,,,6,0,6,0,,,,,,,,,2,0,2,0,1.8678508999291807,,,,-192,,,,,None,0,,,,451246,001,2023-07-12_14h02.56.434,Rewa's Exp,2023.1.2,60.02415367975166,
,,,,,6,0,6,0,,,,,,,,,3,0,3,0,1.6503891998436302,,,,-194,,,,,None,0,,,,451246,001,2023-07-12_14h02.56.434,Rewa's Exp,2023.1.2,60.02415367975166,
,,,,,6,0,6,0,,,,,,,,,4,0,4,0,1.8514268998987973,,,,-196,,,,,None,0,,,,451246,001,2023-07-12_14h02.56.434,Rewa's Exp,2023.1.2,60.02415367975166,
,,,,,6,0,6,0,,,,,,,,,,,,,,,,,,,,,,,,,699.0021886001341,700.0019239000976,451246,001,2023-07-12_14h02.56.434,Rewa's Exp,2023.1.2,60.02415367975166,
Countdown_2s.mp4,green,red,left,Countdown_2s.jpg,7,0,7,0,0,0,0,5,,,,,,,,,2.3506630999036133,None,0,,-198,,,,,,,,,,451246,001,2023-07-12_14h02.56.434,Rewa's Exp,2023.1.2,60.02415367975166,
Countdown_2s.mp4,red,green,right,Countdown_2s.jpg,7,0,7,0,0,1,1,1,,,,,,,,,2.3851590000558645,None,0,,-200,,,,,,,,,,451246,001,2023-07-12_14h02.56.434,Rewa's Exp,2023.1.2,60.02415367975166,
Countdown_1.5s.mp4,green,red,left,Countdown_1.5s.jpg,7,0,7,0,0,2,2,3,,,,,,,,,1.8510019001550972,None,0,,-202,,,,,,,,,,451246,001,2023-07-12_14h02.56.434,Rewa's Exp,2023.1.2,60.02415367975166,
Countdown_2.5s.mp4,green,red,left,Countdown_2.5s.jpg,7,0,7,0,0,3,3,4,,,,,,,,,2.683984500123188,None,0,,-204,,,,,,,,,,451246,001,2023-07-12_14h02.56.434,Rewa's Exp,2023.1.2,60.02415367975166,
Countdown_2.5s.mp4,red,green,right,Countdown_2.5s.jpg,7,0,7,0,0,4,4,0,,,,,,,,,2.683869799831882,None,0,,-206,,,,,,,,,,451246,001,2023-07-12_14h02.56.434,Rewa's Exp,2023.1.2,60.02415367975166,
Countdown_1.5s.mp4,red,green,right,Countdown_1.5s.jpg,7,0,7,0,0,5,5,2,,,,,,,,,1.8344326000660658,None,0,,-208,,,,,,,,,,451246,001,2023-07-12_14h02.56.434,Rewa's Exp,2023.1.2,60.02415367975166,
Countdown_1.5s.mp4,green,red,left,Countdown_1.5s.jpg,7,0,7,0,,,,,0,0,0,3,,,,,1.8841007000301033,,,,-210,738.312808800023,None,0,,,,,,,451246,001,2023-07-12_14h02.56.434,Rewa's Exp,2023.1.2,60.02415367975166,
Countdown_1.5s.mp4,red,green,right,Countdown_1.5s.jpg,7,0,7,0,,,,,0,1,1,2,,,,,1.634414300089702,,,,-212,743.8093443999533,None,0,,,,,,,451246,001,2023-07-12_14h02.56.434,Rewa's Exp,2023.1.2,60.02415367975166,
Countdown_2.5s.mp4,green,red,left,Countdown_2.5s.jpg,7,0,7,0,,,,,0,2,2,4,,,,,2.70098920003511,,,,-214,749.099623600021,None,0,,,,,,,451246,001,2023-07-12_14h02.56.434,Rewa's Exp,2023.1.2,60.02415367975166,
Countdown_2s.mp4,red,green,right,Countdown_2s.jpg,7,0,7,0,,,,,0,3,3,1,,,,,2.1511093000881374,,,,-216,755.3859419000801,None,0,,,,,,,451246,001,2023-07-12_14h02.56.434,Rewa's Exp,2023.1.2,60.02415367975166,
Countdown_2.5s.mp4,red,green,right,Countdown_2.5s.jpg,7,0,7,0,,,,,0,4,4,0,,,,,2.8677034000866115,,,,-218,761.1573503001127,None,0,,,,,,,451246,001,2023-07-12_14h02.56.434,Rewa's Exp,2023.1.2,60.02415367975166,
Countdown_2s.mp4,green,red,left,Countdown_2s.jpg,7,0,7,0,,,,,0,5,5,5,,,,,2.4002809999510646,,,,-220,767.6409388999455,None,0,,,,,,,451246,001,2023-07-12_14h02.56.434,Rewa's Exp,2023.1.2,60.02415367975166,
,,,,,7,0,7,0,,,,,,,,,0,0,0,0,2.1677394998259842,,,,-222,,,,,None,0,,,,451246,001,2023-07-12_14h02.56.434,Rewa's Exp,2023.1.2,60.02415367975166,
,,,,,7,0,7,0,,,,,,,,,1,0,1,0,2.36755680013448,,,,-224,,,,,None,0,,,,451246,001,2023-07-12_14h02.56.434,Rewa's Exp,2023.1.2,60.02415367975166,
,,,,,7,0,7,0,,,,,,,,,2,0,2,0,2.151140300091356,,,,-226,,,,,None,0,,,,451246,001,2023-07-12_14h02.56.434,Rewa's Exp,2023.1.2,60.02415367975166,
,,,,,7,0,7,0,,,,,,,,,3,0,3,0,2.383906199829653,,,,-228,,,,,None,0,,,,451246,001,2023-07-12_14h02.56.434,Rewa's Exp,2023.1.2,60.02415367975166,
,,,,,,,,,,,,,,,,,,,,,2.1511133001185954,,,,,,,,,None,0,,,,,,,,,,
