Countdown,color1,color2,correct,screenshot,trials.thisRepN,trials.thisTrialN,trials.thisN,trials.thisIndex,trials_6040.thisRepN,trials_6040.thisTrialN,trials_6040.thisN,trials_6040.thisIndex,trials_5743.thisRepN,trials_5743.thisTrialN,trials_5743.thisN,trials_5743.thisIndex,trials_5446.thisRepN,trials_5446.thisTrialN,trials_5446.thisN,trials_5446.thisIndex,key_resp_2.started,key_resp_2.keys,key_resp_2.rt,Videoshowstart,Videoshowstop,VideoshowRT,response.keys,response.corr,response.rt,total_score,Left_3.started,response_2.keys,response_2.corr,response_2.rt,response_3.keys,response_3.corr,response_3.rt,text_2.started,text_5.started,text_6.started,key_resp.keys,key_resp.rt,participant,date,expName,psychopyVersion,frameRate,
,,,,,,,,,,,,,,,,,,,,,26.11092439998174,space,3.393144499976188,,,,,,,,,,,,,,,,,,,,Annie,2023-07-18_14h19.28.106,Rewa's Exp,2023.1.2,60.06413647683742,
Countdown_2s.mp4,green,red,left,Countdown_2s.jpg,0,0,0,0,0,0,0,5,,,,,,,,,,,,26.722658500017133,28.351657700026408,1.6289992000092752,left,1,1.5973145000170916,1,,,,,,,,,,,,,Annie,2023-07-18_14h19.28.106,Rewa's Exp,2023.1.2,60.06413647683742,
Countdown_1.5s.mp4,red,green,right,Countdown_1.5s.jpg,0,0,0,0,0,1,1,2,,,,,,,,,,,,32.329359200026374,33.08495360001689,0.7555943999905139,right,1,0.7250630999915302,2,,,,,,,,,,,,,Annie,2023-07-18_14h19.28.106,Rewa's Exp,2023.1.2,60.06413647683742,
Countdown_1.5s.mp4,green,red,left,Countdown_1.5s.jpg,0,0,0,0,0,2,2,3,,,,,,,,,,,,37.05232999997679,37.78595380001934,0.733623800042551,left,1,0.7152132999617606,3,,,,,,,,,,,,,Annie,2023-07-18_14h19.28.106,Rewa's Exp,2023.1.2,60.06413647683742,
Countdown_2s.mp4,red,green,right,Countdown_2s.jpg,0,0,0,0,0,3,3,1,,,,,,,,,,,,41.739456899988,42.35163879999891,0.6121819000109099,right,1,0.579789699986577,4,,,,,,,,,,,,,Annie,2023-07-18_14h19.28.106,Rewa's Exp,2023.1.2,60.06413647683742,
Countdown_2.5s.mp4,red,green,right,Countdown_2.5s.jpg,0,0,0,0,0,4,4,0,,,,,,,,,,,,46.3134560000035,47.53482020000229,1.2213641999987885,left,0,1.1974065999966115,2,,,,,,,,,,,,,Annie,2023-07-18_14h19.28.106,Rewa's Exp,2023.1.2,60.06413647683742,
Countdown_2.5s.mp4,green,red,left,Countdown_2.5s.jpg,0,0,0,0,0,5,5,4,,,,,,,,,,,,51.43664400000125,52.46881639998173,1.0321723999804817,left,1,1.010411399998702,3,,,,,,,,,,,,,Annie,2023-07-18_14h19.28.106,Rewa's Exp,2023.1.2,60.06413647683742,
Countdown_2s.mp4,green,red,left,Countdown_2s.jpg,0,0,0,0,,,,,0,0,0,5,,,,,,,,56.23127270000987,57.00158199999714,0.7703092999872752,,,,4,61.73689319996629,left,1,0.7448703999980353,,,,,,,,,Annie,2023-07-18_14h19.28.106,Rewa's Exp,2023.1.2,60.06413647683742,
Countdown_1.5s.mp4,red,green,right,Countdown_1.5s.jpg,0,0,0,0,,,,,0,1,1,2,,,,,,,,60.96846810000716,61.76842899998883,0.7999608999816701,,,,5,66.47408489999361,right,1,0.7750337999896146,,,,,,,,,Annie,2023-07-18_14h19.28.106,Rewa's Exp,2023.1.2,60.06413647683742,
Countdown_1.5s.mp4,green,red,left,Countdown_1.5s.jpg,0,0,0,0,,,,,0,2,2,3,,,,,,,,65.69244150002487,66.3848171000136,0.6923755999887362,,,,6,71.19805269996868,left,1,0.6593838999979198,,,,,,,,,Annie,2023-07-18_14h19.28.106,Rewa's Exp,2023.1.2,60.06413647683742,
Countdown_2s.mp4,red,green,right,Countdown_2s.jpg,0,0,0,0,,,,,0,3,3,1,,,,,,,,70.33742300001904,71.2850569000002,0.947633899981156,,,,4,75.843033299956,left,0,0.9171614000224508,,,,,,,,,Annie,2023-07-18_14h19.28.106,Rewa's Exp,2023.1.2,60.06413647683742,
Countdown_2.5s.mp4,red,green,right,Countdown_2.5s.jpg,0,0,0,0,,,,,0,4,4,0,,,,,,,,75.2238530999748,76.21860800002469,0.9947549000498839,,,,5,80.72947869997006,right,1,0.9667769999941811,,,,,,,,,Annie,2023-07-18_14h19.28.106,Rewa's Exp,2023.1.2,60.06413647683742,
Countdown_2.5s.mp4,green,red,left,Countdown_2.5s.jpg,0,0,0,0,,,,,0,5,5,4,,,,,,,,80.18989799998235,81.16851809999207,0.9786201000097208,,,,6,85.69556530000409,left,1,0.9616253999993205,,,,,,,,,Annie,2023-07-18_14h19.28.106,Rewa's Exp,2023.1.2,60.06413647683742,
Countdown_2.5s.mp4,green,red,left,Countdown_2.5s.jpg,0,0,0,0,,,,,,,,,0,0,0,4,,,,84.89866290002828,85.70176919997903,0.8031062999507412,,,,7,,,,,left,1,0.7718789000064135,,,,,,Annie,2023-07-18_14h19.28.106,Rewa's Exp,2023.1.2,60.06413647683742,
Countdown_1.5s.mp4,red,green,right,Countdown_1.5s.jpg,0,0,0,0,,,,,,,,,0,1,1,2,,,,89.62234060000628,90.26844339998206,0.6461027999757789,,,,8,,,,,right,1,0.6162362999748439,,,,,,Annie,2023-07-18_14h19.28.106,Rewa's Exp,2023.1.2,60.06413647683742,
Countdown_1.5s.mp4,green,red,left,Countdown_1.5s.jpg,0,0,0,0,,,,,,,,,0,2,2,3,,,,94.1864505999838,94.86846059997333,0.6820099999895319,,,,9,,,,,left,1,0.6616644999594428,,,,,,Annie,2023-07-18_14h19.28.106,Rewa's Exp,2023.1.2,60.06413647683742,
Countdown_2s.mp4,red,green,right,Countdown_2s.jpg,0,0,0,0,,,,,,,,,0,3,3,1,,,,98.79316399997333,100.01831489999313,1.2251509000197984,,,,10,,,,,right,1,1.2062690000166185,,,,,,Annie,2023-07-18_14h19.28.106,Rewa's Exp,2023.1.2,60.06413647683742,
Countdown_2s.mp4,green,red,left,Countdown_2s.jpg,0,0,0,0,,,,,,,,,0,4,4,5,,,,103.93968090001727,104.53529580001486,0.5956148999975994,,,,11,,,,,left,1,0.5716743000084534,,,,,,Annie,2023-07-18_14h19.28.106,Rewa's Exp,2023.1.2,60.06413647683742,
Countdown_2.5s.mp4,red,green,right,Countdown_2.5s.jpg,0,0,0,0,,,,,,,,,0,5,5,0,,,,108.50633990002098,109.30187339999247,0.7955334999714978,,,,9,,,,,left,0,0.7650632000295445,,,,,,Annie,2023-07-18_14h19.28.106,Rewa's Exp,2023.1.2,60.06413647683742,
,,,,,0,0,0,0,,,,,,,,,,,,,,,,,,,,,,,,,,,,,,115.95149959996343,115.95149959996343,115.95149959996343,space,2.2494629999855533,Annie,2023-07-18_14h19.28.106,Rewa's Exp,2023.1.2,60.06413647683742,
Countdown_2.5s.mp4,red,green,right,Countdown_2.5s.jpg,1,0,1,0,0,0,0,0,,,,,,,,,,,,115.5268751999829,116.80187630001456,1.275001100031659,right,1,1.256696299999021,10,,,,,,,,,,,,,Annie,2023-07-18_14h19.28.106,Rewa's Exp,2023.1.2,60.06413647683742,
Countdown_2.5s.mp4,green,red,left,Countdown_2.5s.jpg,1,0,1,0,0,1,1,4,,,,,,,,,,,,120.77420789998723,122.10183110000798,1.3276232000207528,left,1,1.3048321999958716,11,,,,,,,,,,,,,Annie,2023-07-18_14h19.28.106,Rewa's Exp,2023.1.2,60.06413647683742,
Countdown_2s.mp4,red,green,right,Countdown_2s.jpg,1,0,1,0,0,2,2,1,,,,,,,,,,,,126.00286489998689,126.9191638000193,0.916298900032416,right,1,0.8926223000162281,12,,,,,,,,,,,,,Annie,2023-07-18_14h19.28.106,Rewa's Exp,2023.1.2,60.06413647683742,
Countdown_2s.mp4,green,red,left,Countdown_2s.jpg,1,0,1,0,0,3,3,5,,,,,,,,,,,,130.8881335000042,132.03505840001162,1.1469249000074342,right,0,1.12742099998286,10,,,,,,,,,,,,,Annie,2023-07-18_14h19.28.106,Rewa's Exp,2023.1.2,60.06413647683742,
Countdown_1.5s.mp4,green,red,left,Countdown_1.5s.jpg,1,0,1,0,0,4,4,3,,,,,,,,,,,,135.9396067999769,136.83530069998233,0.8956939000054263,left,1,0.867740900022909,11,,,,,,,,,,,,,Annie,2023-07-18_14h19.28.106,Rewa's Exp,2023.1.2,60.06413647683742,
Countdown_1.5s.mp4,red,green,right,Countdown_1.5s.jpg,1,0,1,0,0,5,5,2,,,,,,,,,,,,140.7471514000208,141.7185561999795,0.971404799958691,left,0,0.9475075000082143,9,,,,,,,,,,,,,Annie,2023-07-18_14h19.28.106,Rewa's Exp,2023.1.2,60.06413647683742,
Countdown_2.5s.mp4,red,green,right,Countdown_2.5s.jpg,1,0,1,0,,,,,0,0,0,0,,,,,,,,145.67428249999648,146.90188419999322,1.2276016999967396,,,,7,151.17984509997768,left,0,1.2050570999854244,,,,,,,,,Annie,2023-07-18_14h19.28.106,Rewa's Exp,2023.1.2,60.06413647683742,
Countdown_2s.mp4,green,red,left,Countdown_2s.jpg,1,0,1,0,,,,,0,1,1,5,,,,,,,,150.80638590001035,151.7518547999789,0.9454688999685459,,,,8,156.31196139997337,left,1,0.9283559999894351,,,,,,,,,Annie,2023-07-18_14h19.28.106,Rewa's Exp,2023.1.2,60.06413647683742,
Countdown_2s.mp4,red,green,right,Countdown_2s.jpg,1,0,1,0,,,,,0,2,2,1,,,,,,,,155.68741660000524,156.43543259997386,0.7480159999686293,,,,9,161.19301569997333,right,1,0.7195235000108369,,,,,,,,,Annie,2023-07-18_14h19.28.106,Rewa's Exp,2023.1.2,60.06413647683742,
Countdown_2.5s.mp4,green,red,left,Countdown_2.5s.jpg,1,0,1,0,,,,,0,3,3,4,,,,,,,,160.37274060002528,161.4183503999957,1.045609799970407,,,,10,165.87827220000327,left,1,1.0267032000119798,,,,,,,,,Annie,2023-07-18_14h19.28.106,Rewa's Exp,2023.1.2,60.06413647683742,
Countdown_1.5s.mp4,red,green,right,Countdown_1.5s.jpg,1,0,1,0,,,,,0,4,4,2,,,,,,,,165.37560430000303,166.16930309997406,0.7936987999710254,,,,11,170.88119119999465,right,1,0.7604965000064112,,,,,,,,,Annie,2023-07-18_14h19.28.106,Rewa's Exp,2023.1.2,60.06413647683742,
Countdown_1.5s.mp4,green,red,left,Countdown_1.5s.jpg,1,0,1,0,,,,,0,5,5,3,,,,,,,,170.1291561999824,170.88525689998642,0.7561007000040263,,,,12,175.63422079995507,left,1,0.7354889000416733,,,,,,,,,Annie,2023-07-18_14h19.28.106,Rewa's Exp,2023.1.2,60.06413647683742,
Countdown_2s.mp4,green,red,left,Countdown_2s.jpg,1,0,1,0,,,,,,,,,0,0,0,5,,,,174.85785009997198,176.08528180001304,1.227431700041052,,,,13,,,,,left,1,1.1969952000072226,,,,,,Annie,2023-07-18_14h19.28.106,Rewa's Exp,2023.1.2,60.06413647683742,
Countdown_2.5s.mp4,red,green,right,Countdown_2.5s.jpg,1,0,1,0,,,,,,,,,0,1,1,0,,,,180.02425539999967,181.13613639998948,1.1118809999898076,,,,11,,,,,left,0,1.087983300036285,,,,,,Annie,2023-07-18_14h19.28.106,Rewa's Exp,2023.1.2,60.06413647683742,
Countdown_1.5s.mp4,red,green,right,Countdown_1.5s.jpg,1,0,1,0,,,,,,,,,0,2,2,2,,,,185.09404459997313,185.83539750002092,0.7413529000477865,,,,12,,,,,right,1,0.7215511999675073,,,,,,Annie,2023-07-18_14h19.28.106,Rewa's Exp,2023.1.2,60.06413647683742,
Countdown_2s.mp4,red,green,right,Countdown_2s.jpg,1,0,1,0,,,,,,,,,0,3,3,1,,,,189.73707239999203,191.0685731000267,1.3315007000346668,,,,10,,,,,left,0,1.311030099983327,,,,,,Annie,2023-07-18_14h19.28.106,Rewa's Exp,2023.1.2,60.06413647683742,
Countdown_2.5s.mp4,green,red,left,Countdown_2.5s.jpg,1,0,1,0,,,,,,,,,0,4,4,4,,,,194.97898359998362,196.06842109997524,1.089437499991618,,,,8,,,,,right,0,1.0692529000225477,,,,,,Annie,2023-07-18_14h19.28.106,Rewa's Exp,2023.1.2,60.06413647683742,
Countdown_1.5s.mp4,green,red,left,Countdown_1.5s.jpg,1,0,1,0,,,,,,,,,0,5,5,3,,,,199.98789230000693,200.9520993999904,0.9642070999834687,,,,9,,,,,left,1,0.932235199958086,,,,,,Annie,2023-07-18_14h19.28.106,Rewa's Exp,2023.1.2,60.06413647683742,
,,,,,1,0,1,0,,,,,,,,,,,,,,,,,,,,,,,,,,,,,,207.60171089996584,207.60171089996584,207.60171089996584,space,2.095409000001382,Annie,2023-07-18_14h19.28.106,Rewa's Exp,2023.1.2,60.06413647683742,
Countdown_2s.mp4,green,red,left,Countdown_2s.jpg,2,0,2,0,0,0,0,5,,,,,,,,,,,,207.012623800023,208.15203469997505,1.139410899952054,left,1,1.1066103999619372,10,,,,,,,,,,,,,Annie,2023-07-18_14h19.28.106,Rewa's Exp,2023.1.2,60.06413647683742,
Countdown_2.5s.mp4,red,green,right,Countdown_2.5s.jpg,2,0,2,0,0,1,1,0,,,,,,,,,,,,212.04626869998174,212.85188299999572,0.8056143000139855,right,1,0.7858593999990262,11,,,,,,,,,,,,,Annie,2023-07-18_14h19.28.106,Rewa's Exp,2023.1.2,60.06413647683742,
Countdown_2.5s.mp4,green,red,left,Countdown_2.5s.jpg,2,0,2,0,0,2,2,4,,,,,,,,,,,,216.75625849998323,217.66932490002364,0.9130664000404067,left,1,0.8825546000152826,12,,,,,,,,,,,,,Annie,2023-07-18_14h19.28.106,Rewa's Exp,2023.1.2,60.06413647683742,
Countdown_1.5s.mp4,green,red,left,Countdown_1.5s.jpg,2,0,2,0,0,3,3,3,,,,,,,,,,,,221.63989940000465,222.31867080001393,0.6787714000092819,left,1,0.656432899995707,13,,,,,,,,,,,,,Annie,2023-07-18_14h19.28.106,Rewa's Exp,2023.1.2,60.06413647683742,
Countdown_1.5s.mp4,red,green,right,Countdown_1.5s.jpg,2,0,2,0,0,4,4,2,,,,,,,,,,,,226.25639410002623,227.16903220000677,0.9126380999805406,right,1,0.8799228999996558,14,,,,,,,,,,,,,Annie,2023-07-18_14h19.28.106,Rewa's Exp,2023.1.2,60.06413647683742,
Countdown_2s.mp4,red,green,right,Countdown_2s.jpg,2,0,2,0,0,5,5,1,,,,,,,,,,,,231.079322399979,231.73546080000233,0.6561384000233375,right,1,0.623534300015308,15,,,,,,,,,,,,,Annie,2023-07-18_14h19.28.106,Rewa's Exp,2023.1.2,60.06413647683742,
Countdown_2s.mp4,red,green,right,Countdown_2s.jpg,2,0,2,0,,,,,0,0,0,1,,,,,,,,235.6363787999726,236.5687065999955,0.9323278000229038,,,,13,241.14198479999322,left,0,0.9076035999460146,,,,,,,,,Annie,2023-07-18_14h19.28.106,Rewa's Exp,2023.1.2,60.06413647683742,
Countdown_2.5s.mp4,green,red,left,Countdown_2.5s.jpg,2,0,2,0,,,,,0,1,1,4,,,,,,,,240.50726749998285,241.61928350001108,1.112016000028234,,,,14,246.0128349000006,left,1,1.091916500008665,,,,,,,,,Annie,2023-07-18_14h19.28.106,Rewa's Exp,2023.1.2,60.06413647683742,
Countdown_1.5s.mp4,green,red,left,Countdown_1.5s.jpg,2,0,2,0,,,,,0,2,2,3,,,,,,,,245.5611077999929,246.23555440001655,0.6744466000236571,,,,15,251.06658829998923,left,1,0.654876200016588,,,,,,,,,Annie,2023-07-18_14h19.28.106,Rewa's Exp,2023.1.2,60.06413647683742,
Countdown_1.5s.mp4,red,green,right,Countdown_1.5s.jpg,2,0,2,0,,,,,0,3,3,2,,,,,,,,250.1938841000083,250.91863480000757,0.7247506999992765,,,,16,255.6994943000027,right,1,0.6929465000284836,,,,,,,,,Annie,2023-07-18_14h19.28.106,Rewa's Exp,2023.1.2,60.06413647683742,
Countdown_2.5s.mp4,red,green,right,Countdown_2.5s.jpg,2,0,2,0,,,,,0,4,4,0,,,,,,,,254.83978249999927,255.62166389997583,0.7818813999765553,,,,17,260.3453729999601,right,1,0.7438795000198297,,,,,,,,,Annie,2023-07-18_14h19.28.106,Rewa's Exp,2023.1.2,60.06413647683742,
Countdown_2s.mp4,green,red,left,Countdown_2s.jpg,2,0,2,0,,,,,0,5,5,5,,,,,,,,259.5295950000291,260.5351576000103,1.0055625999812037,,,,18,265.0351864999975,left,1,0.9895574999973178,,,,,,,,,Annie,2023-07-18_14h19.28.106,Rewa's Exp,2023.1.2,60.06413647683742,
Countdown_2s.mp4,red,green,right,Countdown_2s.jpg,2,0,2,0,,,,,,,,,0,0,0,1,,,,264.4641319999937,265.1187369999825,0.6546049999888055,,,,19,,,,,right,1,0.6317234000307508,,,,,,Annie,2023-07-18_14h19.28.106,Rewa's Exp,2023.1.2,60.06413647683742,
Countdown_2.5s.mp4,red,green,right,Countdown_2.5s.jpg,2,0,2,0,,,,,,,,,0,1,1,0,,,,269.03220770001644,270.4021634000237,1.3699557000072673,,,,17,,,,,left,0,1.3437624999787658,,,,,,Annie,2023-07-18_14h19.28.106,Rewa's Exp,2023.1.2,60.06413647683742,
Countdown_2s.mp4,green,red,left,Countdown_2s.jpg,2,0,2,0,,,,,,,,,0,2,2,5,,,,274.3436270999955,275.33618889999343,0.9925617999979295,,,,18,,,,,left,1,0.9683076999499463,,,,,,Annie,2023-07-18_14h19.28.106,Rewa's Exp,2023.1.2,60.06413647683742,
Countdown_1.5s.mp4,red,green,right,Countdown_1.5s.jpg,2,0,2,0,,,,,,,,,0,3,3,2,,,,279.27186909999,280.01885579997906,0.7469866999890655,,,,19,,,,,right,1,0.7195921000093222,,,,,,Annie,2023-07-18_14h19.28.106,Rewa's Exp,2023.1.2,60.06413647683742,
Countdown_1.5s.mp4,green,red,left,Countdown_1.5s.jpg,2,0,2,0,,,,,,,,,0,4,4,3,,,,283.94876090000616,284.80228040000657,0.8535195000004023,,,,20,,,,,left,1,0.825950299971737,,,,,,Annie,2023-07-18_14h19.28.106,Rewa's Exp,2023.1.2,60.06413647683742,
Countdown_2.5s.mp4,green,red,left,Countdown_2.5s.jpg,2,0,2,0,,,,,,,,,0,5,5,4,,,,288.74365640000906,289.5855164999957,0.8418600999866612,,,,21,,,,,left,1,0.8153847000212409,,,,,,Annie,2023-07-18_14h19.28.106,Rewa's Exp,2023.1.2,60.06413647683742,
,,,,,2,0,2,0,,,,,,,,,,,,,,,,,,,,,,,,,,,,,,296.23514740000246,296.23514740000246,296.23514740000246,space,4.093538900022395,Annie,2023-07-18_14h19.28.106,Rewa's Exp,2023.1.2,60.06413647683742,
Countdown_2s.mp4,red,green,right,Countdown_2s.jpg,3,0,3,0,0,0,0,1,,,,,,,,,,,,297.66647029999876,298.4691482000053,0.8026779000065289,right,1,0.7722272000391968,22,,,,,,,,,,,,,Annie,2023-07-18_14h19.28.106,Rewa's Exp,2023.1.2,60.06413647683742,
Countdown_1.5s.mp4,green,red,left,Countdown_1.5s.jpg,3,0,3,0,0,1,1,3,,,,,,,,,,,,302.36408339999616,302.93545180000365,0.5713684000074863,left,1,0.5480541999568231,23,,,,,,,,,,,,,Annie,2023-07-18_14h19.28.106,Rewa's Exp,2023.1.2,60.06413647683742,
Countdown_2.5s.mp4,red,green,right,Countdown_2.5s.jpg,3,0,3,0,0,2,2,0,,,,,,,,,,,,306.88914420001674,307.91910180001287,1.0299575999961235,right,1,0.9977869000285864,24,,,,,,,,,,,,,Annie,2023-07-18_14h19.28.106,Rewa's Exp,2023.1.2,60.06413647683742,
Countdown_2.5s.mp4,green,red,left,Countdown_2.5s.jpg,3,0,3,0,0,3,3,4,,,,,,,,,,,,311.84828299999936,312.61903110001003,0.7707481000106782,left,1,0.7422989999759011,25,,,,,,,,,,,,,Annie,2023-07-18_14h19.28.106,Rewa's Exp,2023.1.2,60.06413647683742,
Countdown_1.5s.mp4,red,green,right,Countdown_1.5s.jpg,3,0,3,0,0,4,4,2,,,,,,,,,,,,316.5676884999848,317.468787299993,0.9010988000081852,right,1,0.8712767999968491,26,,,,,,,,,,,,,Annie,2023-07-18_14h19.28.106,Rewa's Exp,2023.1.2,60.06413647683742,
Countdown_2s.mp4,green,red,left,Countdown_2s.jpg,3,0,3,0,0,5,5,5,,,,,,,,,,,,321.3724900999805,322.5020451999735,1.1295550999930128,left,1,1.1062767999828793,27,,,,,,,,,,,,,Annie,2023-07-18_14h19.28.106,Rewa's Exp,2023.1.2,60.06413647683742,
Countdown_1.5s.mp4,red,green,right,Countdown_1.5s.jpg,3,0,3,0,,,,,0,0,0,2,,,,,,,,326.41478290001396,327.3522531000199,0.9374702000059187,,,,28,331.9203984999913,right,1,0.912177599966526,,,,,,,,,Annie,2023-07-18_14h19.28.106,Rewa's Exp,2023.1.2,60.06413647683742,
Countdown_2.5s.mp4,red,green,right,Countdown_2.5s.jpg,3,0,3,0,,,,,0,1,1,0,,,,,,,,331.24805940000806,332.80233759997645,1.554278199968394,,,,29,336.7536746999831,right,1,1.5282754999934696,,,,,,,,,Annie,2023-07-18_14h19.28.106,Rewa's Exp,2023.1.2,60.06413647683742,
Countdown_2s.mp4,green,red,left,Countdown_2s.jpg,3,0,3,0,,,,,0,2,2,5,,,,,,,,336.7427489000256,337.51897590002045,0.776226999994833,,,,30,342.24823279998964,left,1,0.7449283000314608,,,,,,,,,Annie,2023-07-18_14h19.28.106,Rewa's Exp,2023.1.2,60.06413647683742,
Countdown_2s.mp4,red,green,right,Countdown_2s.jpg,3,0,3,0,,,,,0,3,3,1,,,,,,,,341.4431959000067,342.0856247000047,0.6424287999980152,,,,31,346.9487387999543,right,1,0.6209356999606825,,,,,,,,,Annie,2023-07-18_14h19.28.106,Rewa's Exp,2023.1.2,60.06413647683742,
Countdown_1.5s.mp4,green,red,left,Countdown_1.5s.jpg,3,0,3,0,,,,,0,4,4,3,,,,,,,,346.00248810002813,346.95270520000486,0.9502170999767259,,,,32,351.50805969996145,left,1,0.9324386999942362,,,,,,,,,Annie,2023-07-18_14h19.28.106,Rewa's Exp,2023.1.2,60.06413647683742,
Countdown_2.5s.mp4,green,red,left,Countdown_2.5s.jpg,3,0,3,0,,,,,0,5,5,4,,,,,,,,350.86097719997633,352.46893799997633,1.6079608000000007,,,,33,356.36655689997133,left,1,1.5875160999712534,,,,,,,,,Annie,2023-07-18_14h19.28.106,Rewa's Exp,2023.1.2,60.06413647683742,
Countdown_2.5s.mp4,green,red,left,Countdown_2.5s.jpg,3,0,3,0,,,,,,,,,0,0,0,4,,,,356.40049219998764,357.3687741999747,0.9682819999870844,,,,34,,,,,left,1,0.9425058999913745,,,,,,Annie,2023-07-18_14h19.28.106,Rewa's Exp,2023.1.2,60.06413647683742,
Countdown_1.5s.mp4,red,green,right,Countdown_1.5s.jpg,3,0,3,0,,,,,,,,,0,1,1,2,,,,361.3116254999768,362.0687724999734,0.7571469999966212,,,,35,,,,,right,1,0.7363525000400841,,,,,,Annie,2023-07-18_14h19.28.106,Rewa's Exp,2023.1.2,60.06413647683742,
Countdown_1.5s.mp4,green,red,left,Countdown_1.5s.jpg,3,0,3,0,,,,,,,,,0,2,2,3,,,,366.02616690000286,367.0191740000155,0.993007100012619,,,,36,,,,,left,1,0.964734299981501,,,,,,Annie,2023-07-18_14h19.28.106,Rewa's Exp,2023.1.2,60.06413647683742,
Countdown_2s.mp4,red,green,right,Countdown_2s.jpg,3,0,3,0,,,,,,,,,0,3,3,1,,,,370.97848629998043,372.50212269998156,1.5236364000011235,,,,37,,,,,right,1,1.492548500013072,,,,,,Annie,2023-07-18_14h19.28.106,Rewa's Exp,2023.1.2,60.06413647683742,
Countdown_2s.mp4,green,red,left,Countdown_2s.jpg,3,0,3,0,,,,,,,,,0,4,4,5,,,,376.4334820000222,377.88550779997604,1.4520257999538444,,,,38,,,,,left,1,1.421189000015147,,,,,,Annie,2023-07-18_14h19.28.106,Rewa's Exp,2023.1.2,60.06413647683742,
Countdown_2.5s.mp4,red,green,right,Countdown_2.5s.jpg,3,0,3,0,,,,,,,,,0,5,5,0,,,,381.843312299985,383.55211490002694,1.7088026000419632,,,,36,,,,,left,0,1.6918443000176921,,,,,,Annie,2023-07-18_14h19.28.106,Rewa's Exp,2023.1.2,60.06413647683742,
,,,,,3,0,3,0,,,,,,,,,,,,,,,,,,,,,,,,,,,,,,390.2020810999675,390.2020810999675,390.2020810999675,space,1.82301610003924,Annie,2023-07-18_14h19.28.106,Rewa's Exp,2023.1.2,60.06413647683742,
Countdown_2s.mp4,red,green,right,Countdown_2s.jpg,4,0,4,0,0,0,0,1,,,,,,,,,,,,389.3124598999857,390.86896719998913,1.5565073000034317,right,1,1.527098999998998,37,,,,,,,,,,,,,Annie,2023-07-18_14h19.28.106,Rewa's Exp,2023.1.2,60.06413647683742,
Countdown_2s.mp4,green,red,left,Countdown_2s.jpg,4,0,4,0,0,1,1,5,,,,,,,,,,,,394.84647039999254,395.81903349998174,0.9725630999892019,left,1,0.9531364999711514,38,,,,,,,,,,,,,Annie,2023-07-18_14h19.28.106,Rewa's Exp,2023.1.2,60.06413647683742,
Countdown_1.5s.mp4,green,red,left,Countdown_1.5s.jpg,4,0,4,0,0,2,2,3,,,,,,,,,,,,399.71368579997215,400.4358987999731,0.7222130000009201,right,0,0.6934884000220336,36,,,,,,,,,,,,,Annie,2023-07-18_14h19.28.106,Rewa's Exp,2023.1.2,60.06413647683742,
Countdown_2.5s.mp4,green,red,left,Countdown_2.5s.jpg,4,0,4,0,0,3,3,4,,,,,,,,,,,,404.35718320001615,405.35283009998966,0.995646899973508,left,1,0.962210799974855,37,,,,,,,,,,,,,Annie,2023-07-18_14h19.28.106,Rewa's Exp,2023.1.2,60.06413647683742,
Countdown_2.5s.mp4,red,green,right,Countdown_2.5s.jpg,4,0,4,0,0,4,4,0,,,,,,,,,,,,409.303064799984,410.2531025999924,0.9500378000084311,right,1,0.9197395999799483,38,,,,,,,,,,,,,Annie,2023-07-18_14h19.28.106,Rewa's Exp,2023.1.2,60.06413647683742,
Countdown_1.5s.mp4,red,green,right,Countdown_1.5s.jpg,4,0,4,0,0,5,5,2,,,,,,,,,,,,414.23534870002186,415.2025052999961,0.9671565999742597,left,0,0.9496510999742895,36,,,,,,,,,,,,,Annie,2023-07-18_14h19.28.106,Rewa's Exp,2023.1.2,60.06413647683742,
Countdown_1.5s.mp4,red,green,right,Countdown_1.5s.jpg,4,0,4,0,,,,,0,0,0,2,,,,,,,,419.12129849998746,419.8857994999853,0.7645009999978356,,,,37,424.6268712999881,right,1,0.7337382999830879,,,,,,,,,Annie,2023-07-18_14h19.28.106,Rewa's Exp,2023.1.2,60.06413647683742,
Countdown_2.5s.mp4,green,red,left,Countdown_2.5s.jpg,4,0,4,0,,,,,0,1,1,4,,,,,,,,423.80161989998305,425.28550360002555,1.4838837000424974,,,,38,429.30721999995876,left,1,1.4533872000174597,,,,,,,,,Annie,2023-07-18_14h19.28.106,Rewa's Exp,2023.1.2,60.06413647683742,
Countdown_2s.mp4,red,green,right,Countdown_2s.jpg,4,0,4,0,,,,,0,2,2,1,,,,,,,,429.2138428000035,430.08646209997823,0.8726192999747582,,,,39,434.71942179999314,right,1,0.8408837000024505,,,,,,,,,Annie,2023-07-18_14h19.28.106,Rewa's Exp,2023.1.2,60.06413647683742,
Countdown_2s.mp4,green,red,left,Countdown_2s.jpg,4,0,4,0,,,,,0,3,3,5,,,,,,,,434.01721680001356,435.25246599997627,1.235249199962709,,,,40,439.5228470999864,left,1,1.2153699999907985,,,,,,,,,Annie,2023-07-18_14h19.28.106,Rewa's Exp,2023.1.2,60.06413647683742,
Countdown_1.5s.mp4,green,red,left,Countdown_1.5s.jpg,4,0,4,0,,,,,0,4,4,3,,,,,,,,439.2222136000055,440.11911019997206,0.896896599966567,,,,41,444.72781459998805,left,1,0.8645381000242196,,,,,,,,,Annie,2023-07-18_14h19.28.106,Rewa's Exp,2023.1.2,60.06413647683742,
Countdown_2.5s.mp4,red,green,right,Countdown_2.5s.jpg,4,0,4,0,,,,,0,5,5,0,,,,,,,,444.0265811000136,445.63575489999494,1.6091737999813631,,,,42,449.5322004999616,right,1,1.5802078999695368,,,,,,,,,Annie,2023-07-18_14h19.28.106,Rewa's Exp,2023.1.2,60.06413647683742,
Countdown_1.5s.mp4,green,red,left,Countdown_1.5s.jpg,4,0,4,0,,,,,,,,,0,0,0,3,,,,449.5686541000032,450.5382047999883,0.9695506999851204,,,,43,,,,,left,1,0.9505126999574713,,,,,,Annie,2023-07-18_14h19.28.106,Rewa's Exp,2023.1.2,60.06413647683742,
Countdown_2.5s.mp4,red,green,right,Countdown_2.5s.jpg,4,0,4,0,,,,,,,,,0,1,1,0,,,,454.44984030001797,455.5024373999913,1.0525970999733545,,,,44,,,,,right,1,1.0298936999752186,,,,,,Annie,2023-07-18_14h19.28.106,Rewa's Exp,2023.1.2,60.06413647683742,
Countdown_2s.mp4,red,green,right,Countdown_2s.jpg,4,0,4,0,,,,,,,,,0,2,2,1,,,,459.40569619997405,460.73593959998107,1.3302434000070207,,,,42,,,,,left,0,1.3050568999606185,,,,,,Annie,2023-07-18_14h19.28.106,Rewa's Exp,2023.1.2,60.06413647683742,
Countdown_2.5s.mp4,green,red,left,Countdown_2.5s.jpg,4,0,4,0,,,,,,,,,0,3,3,4,,,,464.6776603999897,466.1690500000259,1.4913896000362001,,,,43,,,,,left,1,1.4659176000277512,,,,,,Annie,2023-07-18_14h19.28.106,Rewa's Exp,2023.1.2,60.06413647683742,
Countdown_2s.mp4,green,red,left,Countdown_2s.jpg,4,0,4,0,,,,,,,,,0,4,4,5,,,,470.10963459999766,471.01989820000017,0.9102636000025086,,,,44,,,,,left,1,0.8907151999883354,,,,,,Annie,2023-07-18_14h19.28.106,Rewa's Exp,2023.1.2,60.06413647683742,
Countdown_1.5s.mp4,red,green,right,Countdown_1.5s.jpg,4,0,4,0,,,,,,,,,0,5,5,2,,,,474.9557659000275,475.98597219999647,1.0302062999689952,,,,45,,,,,right,1,1.0128781999810599,,,,,,Annie,2023-07-18_14h19.28.106,Rewa's Exp,2023.1.2,60.06413647683742,
,,,,,4,0,4,0,,,,,,,,,,,,,,,,,,,,,,,,,,,,,,482.63559059996624,482.63559059996624,482.63559059996624,space,3.5331784000154585,Annie,2023-07-18_14h19.28.106,Rewa's Exp,2023.1.2,60.06413647683742,
Countdown_2.5s.mp4,red,green,right,Countdown_2.5s.jpg,5,0,5,0,0,0,0,0,,,,,,,,,,,,483.45834780001314,484.7357190999901,1.2773712999769486,right,1,1.2536248000105843,46,,,,,,,,,,,,,Annie,2023-07-18_14h19.28.106,Rewa's Exp,2023.1.2,60.06413647683742,
Countdown_2s.mp4,red,green,right,Countdown_2s.jpg,5,0,5,0,0,1,1,1,,,,,,,,,,,,488.6493820999749,489.6524047999992,1.003022700024303,right,1,0.9740962999640033,47,,,,,,,,,,,,,Annie,2023-07-18_14h19.28.106,Rewa's Exp,2023.1.2,60.06413647683742,
Countdown_1.5s.mp4,red,green,right,Countdown_1.5s.jpg,5,0,5,0,0,2,2,2,,,,,,,,,,,,493.5676714000292,494.3359416999738,0.768270299944561,right,1,0.7359351000050083,48,,,,,,,,,,,,,Annie,2023-07-18_14h19.28.106,Rewa's Exp,2023.1.2,60.06413647683742,
Countdown_2s.mp4,green,red,left,Countdown_2s.jpg,5,0,5,0,0,3,3,5,,,,,,,,,,,,498.2453179000295,499.4858103999868,1.2404924999573268,left,1,1.210054500028491,49,,,,,,,,,,,,,Annie,2023-07-18_14h19.28.106,Rewa's Exp,2023.1.2,60.06413647683742,
Countdown_1.5s.mp4,green,red,left,Countdown_1.5s.jpg,5,0,5,0,0,4,4,3,,,,,,,,,,,,503.40790799999377,504.33581840002444,0.9279104000306688,left,1,0.8960996000096202,50,,,,,,,,,,,,,Annie,2023-07-18_14h19.28.106,Rewa's Exp,2023.1.2,60.06413647683742,
Countdown_2.5s.mp4,green,red,left,Countdown_2.5s.jpg,5,0,5,0,0,5,5,4,,,,,,,,,,,,508.2430141000077,509.1693893999909,0.9263752999831922,left,1,0.9015617000404745,51,,,,,,,,,,,,,Annie,2023-07-18_14h19.28.106,Rewa's Exp,2023.1.2,60.06413647683742,
Countdown_2.5s.mp4,red,green,right,Countdown_2.5s.jpg,5,0,5,0,,,,,0,0,0,0,,,,,,,,513.1212796000182,514.4859158999752,1.3646362999570556,,,,52,518.6268667000113,right,1,1.3335851000156254,,,,,,,,,Annie,2023-07-18_14h19.28.106,Rewa's Exp,2023.1.2,60.06413647683742,
Countdown_1.5s.mp4,green,red,left,Countdown_1.5s.jpg,5,0,5,0,,,,,0,1,1,3,,,,,,,,518.3877963999985,519.2858609000104,0.8980645000119694,,,,53,523.8933404999552,left,1,0.8757887000101618,,,,,,,,,Annie,2023-07-18_14h19.28.106,Rewa's Exp,2023.1.2,60.06413647683742,
Countdown_2s.mp4,red,green,right,Countdown_2s.jpg,5,0,5,0,,,,,0,2,2,1,,,,,,,,523.1968792999978,524.0527042999747,0.8558249999769032,,,,54,528.702037399984,right,1,0.8353344000061043,,,,,,,,,Annie,2023-07-18_14h19.28.106,Rewa's Exp,2023.1.2,60.06413647683742,
Countdown_1.5s.mp4,red,green,right,Countdown_1.5s.jpg,5,0,5,0,,,,,0,3,3,2,,,,,,,,527.9581828999799,528.8859411000158,0.9277582000358962,,,,55,533.4635840999545,right,1,0.9053777999943122,,,,,,,,,Annie,2023-07-18_14h19.28.106,Rewa's Exp,2023.1.2,60.06413647683742,
Countdown_2s.mp4,green,red,left,Countdown_2s.jpg,5,0,5,0,,,,,0,4,4,5,,,,,,,,532.7986247999943,534.0700887999847,1.2714639999903738,,,,56,538.3041957999812,left,1,1.2404275999870151,,,,,,,,,Annie,2023-07-18_14h19.28.106,Rewa's Exp,2023.1.2,60.06413647683742,
Countdown_2.5s.mp4,green,red,left,Countdown_2.5s.jpg,5,0,5,0,,,,,0,5,5,4,,,,,,,,538.0043758000247,538.9860021999921,0.9816263999673538,,,,57,543.5099893999868,left,1,0.9545920999953523,,,,,,,,,Annie,2023-07-18_14h19.28.106,Rewa's Exp,2023.1.2,60.06413647683742,
Countdown_1.5s.mp4,red,green,right,Countdown_1.5s.jpg,5,0,5,0,,,,,,,,,0,0,0,2,,,,542.8973831000039,543.8692376000108,0.9718545000068843,,,,55,,,,,left,0,0.9503189999959432,,,,,,Annie,2023-07-18_14h19.28.106,Rewa's Exp,2023.1.2,60.06413647683742,
Countdown_1.5s.mp4,green,red,left,Countdown_1.5s.jpg,5,0,5,0,,,,,,,,,0,1,1,3,,,,547.820716599992,548.6692978999927,0.8485813000006601,,,,56,,,,,left,1,0.8270255000097677,,,,,,Annie,2023-07-18_14h19.28.106,Rewa's Exp,2023.1.2,60.06413647683742,
Countdown_2s.mp4,red,green,right,Countdown_2s.jpg,5,0,5,0,,,,,,,,,0,2,2,1,,,,552.6019888999872,553.7530815000064,1.151092600019183,,,,57,,,,,right,1,1.1181153999641538,,,,,,Annie,2023-07-18_14h19.28.106,Rewa's Exp,2023.1.2,60.06413647683742,
Countdown_2.5s.mp4,green,red,left,Countdown_2.5s.jpg,5,0,5,0,,,,,,,,,0,3,3,4,,,,557.728532899986,559.2858550000237,1.5573221000377089,,,,58,,,,,left,1,1.5264835000270978,,,,,,Annie,2023-07-18_14h19.28.106,Rewa's Exp,2023.1.2,60.06413647683742,
Countdown_2s.mp4,green,red,left,Countdown_2s.jpg,5,0,5,0,,,,,,,,,0,4,4,5,,,,563.2268744999892,564.6359286999796,1.4090541999903508,,,,56,,,,,right,0,1.38151450001169,,,,,,Annie,2023-07-18_14h19.28.106,Rewa's Exp,2023.1.2,60.06413647683742,
Countdown_2.5s.mp4,red,green,right,Countdown_2.5s.jpg,5,0,5,0,,,,,,,,,0,5,5,0,,,,568.527494399983,569.4862633000012,0.9587689000181854,,,,54,,,,,left,0,0.9282150000217371,,,,,,Annie,2023-07-18_14h19.28.106,Rewa's Exp,2023.1.2,60.06413647683742,
,,,,,5,0,5,0,,,,,,,,,,,,,,,,,,,,,,,,,,,,,,576.1359418999637,576.1359418999637,576.1359418999637,space,2.1457545000012033,Annie,2023-07-18_14h19.28.106,Rewa's Exp,2023.1.2,60.06413647683742,
Countdown_2s.mp4,green,red,left,Countdown_2s.jpg,6,0,6,0,0,0,0,5,,,,,,,,,,,,575.5692360000103,576.9358630999923,1.3666270999819972,left,1,1.3347049999865703,55,,,,,,,,,,,,,Annie,2023-07-18_14h19.28.106,Rewa's Exp,2023.1.2,60.06413647683742,
Countdown_1.5s.mp4,red,green,right,Countdown_1.5s.jpg,6,0,6,0,0,1,1,2,,,,,,,,,,,,580.8631535000168,581.7697019000188,0.906548400002066,right,1,0.8801953999791294,56,,,,,,,,,,,,,Annie,2023-07-18_14h19.28.106,Rewa's Exp,2023.1.2,60.06413647683742,
Countdown_1.5s.mp4,green,red,left,Countdown_1.5s.jpg,6,0,6,0,0,2,2,3,,,,,,,,,,,,585.7468885999988,586.7859297000105,1.0390411000116728,left,1,1.0209453999996185,57,,,,,,,,,,,,,Annie,2023-07-18_14h19.28.106,Rewa's Exp,2023.1.2,60.06413647683742,
Countdown_2.5s.mp4,green,red,left,Countdown_2.5s.jpg,6,0,6,0,0,3,3,4,,,,,,,,,,,,590.6848810000229,592.1526994999731,1.4678184999502264,left,1,1.450952099985443,58,,,,,,,,,,,,,Annie,2023-07-18_14h19.28.106,Rewa's Exp,2023.1.2,60.06413647683742,
Countdown_2s.mp4,red,green,right,Countdown_2s.jpg,6,0,6,0,0,4,4,1,,,,,,,,,,,,596.0846462000045,597.0194387999945,0.9347925999900326,right,1,0.9071779999649152,59,,,,,,,,,,,,,Annie,2023-07-18_14h19.28.106,Rewa's Exp,2023.1.2,60.06413647683742,
Countdown_2.5s.mp4,red,green,right,Countdown_2.5s.jpg,6,0,6,0,0,5,5,0,,,,,,,,,,,,600.9250982999802,602.1527813000139,1.2276830000337213,right,1,1.2031440999708138,60,,,,,,,,,,,,,Annie,2023-07-18_14h19.28.106,Rewa's Exp,2023.1.2,60.06413647683742,
Countdown_2s.mp4,green,red,left,Countdown_2s.jpg,6,0,6,0,,,,,0,0,0,5,,,,,,,,606.0885461000144,607.0364270000136,0.9478808999992907,,,,61,611.5941472999984,left,1,0.9277445999905467,,,,,,,,,Annie,2023-07-18_14h19.28.106,Rewa's Exp,2023.1.2,60.06413647683742,
Countdown_2s.mp4,red,green,right,Countdown_2s.jpg,6,0,6,0,,,,,0,1,1,1,,,,,,,,610.9687818000093,612.2692804000108,1.300498600001447,,,,62,616.4744454000029,right,1,1.270678400003817,,,,,,,,,Annie,2023-07-18_14h19.28.106,Rewa's Exp,2023.1.2,60.06413647683742,
Countdown_2.5s.mp4,red,green,right,Countdown_2.5s.jpg,6,0,6,0,,,,,0,2,2,0,,,,,,,,616.159495000029,617.0362951999996,0.876800199970603,,,,63,621.6651167999953,right,1,0.8559529000194743,,,,,,,,,Annie,2023-07-18_14h19.28.106,Rewa's Exp,2023.1.2,60.06413647683742,
Countdown_2.5s.mp4,green,red,left,Countdown_2.5s.jpg,6,0,6,0,,,,,0,3,3,4,,,,,,,,621.0054760000203,621.8533159000217,0.8478399000014178,,,,64,626.5110596999875,left,1,0.8254874999984168,,,,,,,,,Annie,2023-07-18_14h19.28.106,Rewa's Exp,2023.1.2,60.06413647683742,
Countdown_1.5s.mp4,green,red,left,Countdown_1.5s.jpg,6,0,6,0,,,,,0,4,4,3,,,,,,,,625.7590477999765,626.5532985000173,0.7942507000407204,,,,65,631.2646640999592,left,1,0.7606558999978006,,,,,,,,,Annie,2023-07-18_14h19.28.106,Rewa's Exp,2023.1.2,60.06413647683742,
Countdown_1.5s.mp4,red,green,right,Countdown_1.5s.jpg,6,0,6,0,,,,,0,5,5,2,,,,,,,,630.4784622000298,631.2361529999762,0.7576907999464311,,,,66,635.9840569999651,right,1,0.7288362000253983,,,,,,,,,Annie,2023-07-18_14h19.28.106,Rewa's Exp,2023.1.2,60.06413647683742,
Countdown_1.5s.mp4,green,red,left,Countdown_1.5s.jpg,6,0,6,0,,,,,,,,,0,0,0,3,,,,635.1934681999846,635.9196324999793,0.7261642999947071,,,,64,,,,,right,0,0.6937430999823846,,,,,,Annie,2023-07-18_14h19.28.106,Rewa's Exp,2023.1.2,60.06413647683742,
Countdown_2.5s.mp4,green,red,left,Countdown_2.5s.jpg,6,0,6,0,,,,,,,,,0,1,1,4,,,,639.8334536000038,641.2695940000121,1.4361404000082985,,,,62,,,,,right,0,1.40566560003208,,,,,,Annie,2023-07-18_14h19.28.106,Rewa's Exp,2023.1.2,60.06413647683742,
Countdown_2s.mp4,green,red,left,Countdown_2s.jpg,6,0,6,0,,,,,,,,,0,2,2,5,,,,645.2052807,646.2194268999738,1.0141461999737658,,,,63,,,,,left,1,0.9859197000041604,,,,,,Annie,2023-07-18_14h19.28.106,Rewa's Exp,2023.1.2,60.06413647683742,
Countdown_1.5s.mp4,red,green,right,Countdown_1.5s.jpg,6,0,6,0,,,,,,,,,0,3,3,2,,,,650.1218589000055,650.9028805000125,0.7810216000070795,,,,64,,,,,right,1,0.7574213999905623,,,,,,Annie,2023-07-18_14h19.28.106,Rewa's Exp,2023.1.2,60.06413647683742,
Countdown_2.5s.mp4,red,green,right,Countdown_2.5s.jpg,6,0,6,0,,,,,,,,,0,4,4,0,,,,654.8034333999967,656.0859829999972,1.2825496000004932,,,,65,,,,,right,1,1.2600993999512866,,,,,,Annie,2023-07-18_14h19.28.106,Rewa's Exp,2023.1.2,60.06413647683742,
Countdown_2s.mp4,red,green,right,Countdown_2s.jpg,6,0,6,0,,,,,,,,,0,5,5,1,,,,660.0034996999893,660.9362551000086,0.9327554000192322,,,,63,,,,,left,0,0.9083497999818064,,,,,,Annie,2023-07-18_14h19.28.106,Rewa's Exp,2023.1.2,60.06413647683742,
,,,,,6,0,6,0,,,,,,,,,,,,,,,,,,,,,,,,,,,,,,667.5695119999582,667.5695119999582,667.5695119999582,space,6.128507299988996,Annie,2023-07-18_14h19.28.106,Rewa's Exp,2023.1.2,60.06413647683742,
Countdown_1.5s.mp4,green,red,left,Countdown_1.5s.jpg,7,0,7,0,0,0,0,3,,,,,,,,,,,,671.0050351999816,672.1528599999729,1.1478247999912128,left,1,1.115351400047075,64,,,,,,,,,,,,,Annie,2023-07-18_14h19.28.106,Rewa's Exp,2023.1.2,60.06413647683742,
Countdown_1.5s.mp4,red,green,right,Countdown_1.5s.jpg,7,0,7,0,0,1,1,2,,,,,,,,,,,,676.0788948999834,676.8030855000252,0.7241906000417657,right,1,0.6960851000039838,65,,,,,,,,,,,,,Annie,2023-07-18_14h19.28.106,Rewa's Exp,2023.1.2,60.06413647683742,
Countdown_2.5s.mp4,red,green,right,Countdown_2.5s.jpg,7,0,7,0,0,2,2,0,,,,,,,,,,,,680.7072165000136,681.9694057999877,1.2621892999741249,right,1,1.2450581999728456,66,,,,,,,,,,,,,Annie,2023-07-18_14h19.28.106,Rewa's Exp,2023.1.2,60.06413647683742,
Countdown_2.5s.mp4,green,red,left,Countdown_2.5s.jpg,7,0,7,0,0,3,3,4,,,,,,,,,,,,685.8673589000246,687.036119700002,1.1687607999774627,left,1,1.1396611999953166,67,,,,,,,,,,,,,Annie,2023-07-18_14h19.28.106,Rewa's Exp,2023.1.2,60.06413647683742,
Countdown_2s.mp4,red,green,right,Countdown_2s.jpg,7,0,7,0,0,4,4,1,,,,,,,,,,,,690.9853537000017,692.1860716000083,1.2007179000065662,right,1,1.1833182999980636,68,,,,,,,,,,,,,Annie,2023-07-18_14h19.28.106,Rewa's Exp,2023.1.2,60.06413647683742,
Countdown_2s.mp4,green,red,left,Countdown_2s.jpg,7,0,7,0,0,5,5,5,,,,,,,,,,,,696.1024953000015,697.6694648999837,1.566969599982258,right,0,1.5371082000201568,66,,,,,,,,,,,,,Annie,2023-07-18_14h19.28.106,Rewa's Exp,2023.1.2,60.06413647683742,
Countdown_2.5s.mp4,green,red,left,Countdown_2.5s.jpg,7,0,7,0,,,,,0,0,0,4,,,,,,,,701.586277000024,702.8209793000133,1.2347022999892943,,,,67,707.0918615999981,left,1,1.2053620999795385,,,,,,,,,Annie,2023-07-18_14h19.28.106,Rewa's Exp,2023.1.2,60.06413647683742,
Countdown_2s.mp4,green,red,left,Countdown_2s.jpg,7,0,7,0,,,,,0,1,1,5,,,,,,,,706.7781622000039,708.0533629999845,1.2752007999806665,,,,68,712.2837610999704,left,1,1.2451886999770068,,,,,,,,,Annie,2023-07-18_14h19.28.106,Rewa's Exp,2023.1.2,60.06413647683742,
Countdown_1.5s.mp4,red,green,right,Countdown_1.5s.jpg,7,0,7,0,,,,,0,2,2,2,,,,,,,,712.0241300999769,712.6533292999957,0.6291992000187747,,,,69,717.5297424999881,right,1,0.6080394000164233,,,,,,,,,Annie,2023-07-18_14h19.28.106,Rewa's Exp,2023.1.2,60.06413647683742,
Countdown_2s.mp4,red,green,right,Countdown_2s.jpg,7,0,7,0,,,,,0,3,3,1,,,,,,,,716.5912526000175,717.4863157999935,0.8950631999759935,,,,70,722.0968565999647,right,1,0.8717816999414936,,,,,,,,,Annie,2023-07-18_14h19.28.106,Rewa's Exp,2023.1.2,60.06413647683742,
Countdown_1.5s.mp4,green,red,left,Countdown_1.5s.jpg,7,0,7,0,,,,,0,4,4,3,,,,,,,,721.3885840000003,722.2363859000034,0.8478019000031054,,,,71,726.8941753999679,left,1,0.818546999944374,,,,,,,,,Annie,2023-07-18_14h19.28.106,Rewa's Exp,2023.1.2,60.06413647683742,
Countdown_2.5s.mp4,red,green,right,Countdown_2.5s.jpg,7,0,7,0,,,,,0,5,5,0,,,,,,,,726.1591836999869,727.7533848999883,1.5942012000014074,,,,69,731.6648025999893,left,0,1.5614032000303268,,,,,,,,,Annie,2023-07-18_14h19.28.106,Rewa's Exp,2023.1.2,60.06413647683742,
Countdown_2.5s.mp4,red,green,right,Countdown_2.5s.jpg,7,0,7,0,,,,,,,,,0,0,0,0,,,,731.6967945999932,732.8203121999977,1.1235176000045612,,,,70,,,,,right,1,1.095330499985721,,,,,,Annie,2023-07-18_14h19.28.106,Rewa's Exp,2023.1.2,60.06413647683742,
Countdown_2s.mp4,red,green,right,Countdown_2s.jpg,7,0,7,0,,,,,,,,,0,1,1,1,,,,736.7251463999855,737.5531677000108,0.8280213000252843,,,,71,,,,,right,1,0.8107774999807589,,,,,,Annie,2023-07-18_14h19.28.106,Rewa's Exp,2023.1.2,60.06413647683742,
Countdown_2s.mp4,green,red,left,Countdown_2s.jpg,7,0,7,0,,,,,,,,,0,2,2,5,,,,741.4995754000265,742.4030203000293,0.9034449000027962,,,,69,,,,,right,0,0.8754005000228062,,,,,,Annie,2023-07-18_14h19.28.106,Rewa's Exp,2023.1.2,60.06413647683742,
Countdown_1.5s.mp4,red,green,right,Countdown_1.5s.jpg,7,0,7,0,,,,,,,,,0,3,3,2,,,,746.3100432999781,747.2030117000104,0.8929684000322595,,,,70,,,,,right,1,0.8650720000150613,,,,,,Annie,2023-07-18_14h19.28.106,Rewa's Exp,2023.1.2,60.06413647683742,
Countdown_1.5s.mp4,green,red,left,Countdown_1.5s.jpg,7,0,7,0,,,,,,,,,0,4,4,3,,,,751.0975659000105,752.1530063999817,1.055440499971155,,,,71,,,,,left,1,1.030213400023058,,,,,,Annie,2023-07-18_14h19.28.106,Rewa's Exp,2023.1.2,60.06413647683742,
Countdown_2.5s.mp4,green,red,left,Countdown_2.5s.jpg,7,0,7,0,,,,,,,,,0,5,5,4,,,,756.0496855999809,757.7529212000081,1.7032356000272557,,,,69,,,,,right,0,1.6864728999789804,,,,,,Annie,2023-07-18_14h19.28.106,Rewa's Exp,2023.1.2,60.06413647683742,
,,,,,7,0,7,0,,,,,,,,,,,,,,,,,,,,,,,,,,,,,,764.3862382000079,764.3862382000079,764.3862382000079,space,3.6321336000110023,Annie,2023-07-18_14h19.28.106,Rewa's Exp,2023.1.2,60.06413647683742,
Countdown_2s.mp4,red,green,right,Countdown_2s.jpg,8,0,8,0,0,0,0,1,,,,,,,,,,,,765.3438572000014,766.3370730999741,0.9932158999727108,right,1,0.9594639000133611,70,,,,,,,,,,,,,Annie,2023-07-18_14h19.28.106,Rewa's Exp,2023.1.2,60.06413647683742,
Countdown_1.5s.mp4,red,green,right,Countdown_1.5s.jpg,8,0,8,0,0,1,1,2,,,,,,,,,,,,770.2673818999901,771.1530789000099,0.885697000019718,right,1,0.8607247000327334,71,,,,,,,,,,,,,Annie,2023-07-18_14h19.28.106,Rewa's Exp,2023.1.2,60.06413647683742,
Countdown_2.5s.mp4,red,green,right,Countdown_2.5s.jpg,8,0,8,0,0,2,2,0,,,,,,,,,,,,775.0726078000152,776.0198248000233,0.9472170000080951,right,1,0.928086300031282,72,,,,,,,,,,,,,Annie,2023-07-18_14h19.28.106,Rewa's Exp,2023.1.2,60.06413647683742,
Countdown_2.5s.mp4,green,red,left,Countdown_2.5s.jpg,8,0,8,0,0,3,3,4,,,,,,,,,,,,779.945939199999,780.9204163000104,0.974477100011427,left,1,0.9411551000084728,73,,,,,,,,,,,,,Annie,2023-07-18_14h19.28.106,Rewa's Exp,2023.1.2,60.06413647683742,
Countdown_1.5s.mp4,green,red,left,Countdown_1.5s.jpg,8,0,8,0,0,4,4,3,,,,,,,,,,,,784.8161737999762,785.5866032000049,0.7704294000286609,left,1,0.7520450999727473,74,,,,,,,,,,,,,Annie,2023-07-18_14h19.28.106,Rewa's Exp,2023.1.2,60.06413647683742,
Countdown_2s.mp4,green,red,left,Countdown_2s.jpg,8,0,8,0,0,5,5,5,,,,,,,,,,,,789.516961699992,790.7532904000254,1.2363287000334822,left,1,1.218979400000535,75,,,,,,,,,,,,,Annie,2023-07-18_14h19.28.106,Rewa's Exp,2023.1.2,60.06413647683742,
Countdown_2.5s.mp4,red,green,right,Countdown_2.5s.jpg,8,0,8,0,,,,,0,0,0,0,,,,,,,,794.7292143999948,795.7363749999786,1.007160599983763,,,,76,800.2339540999965,right,1,0.9832104999804869,,,,,,,,,Annie,2023-07-18_14h19.28.106,Rewa's Exp,2023.1.2,60.06413647683742,
Countdown_1.5s.mp4,green,red,left,Countdown_1.5s.jpg,8,0,8,0,,,,,0,1,1,3,,,,,,,,799.6364328999771,800.4864045000286,0.8499716000515036,,,,77,805.1420372999855,left,1,0.8194476999924518,,,,,,,,,Annie,2023-07-18_14h19.28.106,Rewa's Exp,2023.1.2,60.06413647683742,
Countdown_1.5s.mp4,red,green,right,Countdown_1.5s.jpg,8,0,8,0,,,,,0,2,2,2,,,,,,,,804.4303633000236,805.1530691999942,0.722705899970606,,,,78,809.9360085999942,right,1,0.6974795000278391,,,,,,,,,Annie,2023-07-18_14h19.28.106,Rewa's Exp,2023.1.2,60.06413647683742,
Countdown_2s.mp4,red,green,right,Countdown_2s.jpg,8,0,8,0,,,,,0,3,3,1,,,,,,,,809.0606387999724,810.0864256999921,1.0257869000197388,,,,79,814.56624309998,right,1,1.003464300010819,,,,,,,,,Annie,2023-07-18_14h19.28.106,Rewa's Exp,2023.1.2,60.06413647683742,
Countdown_2s.mp4,green,red,left,Countdown_2s.jpg,8,0,8,0,,,,,0,4,4,5,,,,,,,,814.0186611000099,815.4697853000253,1.4511242000153288,,,,80,819.5242747999728,left,1,1.4289710000157356,,,,,,,,,Annie,2023-07-18_14h19.28.106,Rewa's Exp,2023.1.2,60.06413647683742,
Countdown_2.5s.mp4,green,red,left,Countdown_2.5s.jpg,8,0,8,0,,,,,0,5,5,4,,,,,,,,819.4134716999833,820.6530808000243,1.2396091000409797,,,,81,824.9190824999823,left,1,1.2183680000016466,,,,,,,,,Annie,2023-07-18_14h19.28.106,Rewa's Exp,2023.1.2,60.06413647683742,
Countdown_2.5s.mp4,red,green,right,Countdown_2.5s.jpg,8,0,8,0,,,,,,,,,0,0,0,0,,,,824.5639173000236,825.2531153999735,0.6891980999498628,,,,82,,,,,right,1,0.6590629999991506,,,,,,Annie,2023-07-18_14h19.28.106,Rewa's Exp,2023.1.2,60.06413647683742,
Countdown_2s.mp4,red,green,right,Countdown_2s.jpg,8,0,8,0,,,,,,,,,0,1,1,1,,,,829.1675424000132,830.1865821999963,1.0190397999831475,,,,80,,,,,left,0,0.9930122999940068,,,,,,Annie,2023-07-18_14h19.28.106,Rewa's Exp,2023.1.2,60.06413647683742,
Countdown_1.5s.mp4,red,green,right,Countdown_1.5s.jpg,8,0,8,0,,,,,,,,,0,2,2,2,,,,834.0918346000253,835.1697888000053,1.077954199980013,,,,78,,,,,left,0,1.0520173000404611,,,,,,Annie,2023-07-18_14h19.28.106,Rewa's Exp,2023.1.2,60.06413647683742,
Countdown_2s.mp4,green,red,left,Countdown_2s.jpg,8,0,8,0,,,,,,,,,0,3,3,5,,,,839.0800518000033,840.1537484999862,1.0736966999829747,,,,79,,,,,left,1,1.0484587000100873,,,,,,Annie,2023-07-18_14h19.28.106,Rewa's Exp,2023.1.2,60.06413647683742,
Countdown_1.5s.mp4,green,red,left,Countdown_1.5s.jpg,8,0,8,0,,,,,,,,,0,4,4,3,,,,844.1070085000247,844.8944755999837,0.7874670999590307,,,,80,,,,,left,1,0.7570818000240251,,,,,,Annie,2023-07-18_14h19.28.106,Rewa's Exp,2023.1.2,60.06413647683742,
Countdown_2.5s.mp4,green,red,left,Countdown_2.5s.jpg,8,0,8,0,,,,,,,,,0,5,5,4,,,,848.8705274999957,849.8204820000101,0.949954500014428,,,,81,,,,,left,1,0.9298019999987446,,,,,,Annie,2023-07-18_14h19.28.106,Rewa's Exp,2023.1.2,60.06413647683742,
,,,,,8,0,8,0,,,,,,,,,,,,,,,,,,,,,,,,,,,,,,856.4697105999803,856.4697105999803,856.4697105999803,space,4.851278799993452,Annie,2023-07-18_14h19.28.106,Rewa's Exp,2023.1.2,60.06413647683742,
Countdown_2.5s.mp4,red,green,right,Countdown_2.5s.jpg,9,0,9,0,0,0,0,0,,,,,,,,,,,,858.630221600004,859.669817099988,1.0395954999839887,right,1,1.0176956999930553,82,,,,,,,,,,,,,Annie,2023-07-18_14h19.28.106,Rewa's Exp,2023.1.2,60.06413647683742,
Countdown_1.5s.mp4,green,red,left,Countdown_1.5s.jpg,9,0,9,0,0,1,1,3,,,,,,,,,,,,863.5923791999812,864.4700460999738,0.8776668999926187,left,1,0.8474374000215903,83,,,,,,,,,,,,,Annie,2023-07-18_14h19.28.106,Rewa's Exp,2023.1.2,60.06413647683742,
Countdown_2.5s.mp4,green,red,left,Countdown_2.5s.jpg,9,0,9,0,0,2,2,4,,,,,,,,,,,,868.3924138000002,869.4866864000214,1.0942726000212133,left,1,1.0711487000226043,84,,,,,,,,,,,,,Annie,2023-07-18_14h19.28.106,Rewa's Exp,2023.1.2,60.06413647683742,
Countdown_2s.mp4,green,red,left,Countdown_2s.jpg,9,0,9,0,0,3,3,5,,,,,,,,,,,,873.4158279999974,874.287173699995,0.8713456999976188,left,1,0.8392418999574147,85,,,,,,,,,,,,,Annie,2023-07-18_14h19.28.106,Rewa's Exp,2023.1.2,60.06413647683742,
Countdown_2s.mp4,red,green,right,Countdown_2s.jpg,9,0,9,0,0,4,4,1,,,,,,,,,,,,878.2198586000013,879.2197828000062,0.999924200004898,right,1,0.9809768000268377,86,,,,,,,,,,,,,Annie,2023-07-18_14h19.28.106,Rewa's Exp,2023.1.2,60.06413647683742,
Countdown_1.5s.mp4,red,green,right,Countdown_1.5s.jpg,9,0,9,0,0,5,5,2,,,,,,,,,,,,883.1437696000212,884.186662800028,1.0428932000068016,right,1,1.0166557000484318,87,,,,,,,,,,,,,Annie,2023-07-18_14h19.28.106,Rewa's Exp,2023.1.2,60.06413647683742,
Countdown_1.5s.mp4,green,red,left,Countdown_1.5s.jpg,9,0,9,0,,,,,0,0,0,3,,,,,,,,888.1288386000087,888.7700266999891,0.6411880999803543,,,,88,893.6344455999788,left,1,0.6231210000114515,,,,,,,,,Annie,2023-07-18_14h19.28.106,Rewa's Exp,2023.1.2,60.06413647683742,
Countdown_2s.mp4,red,green,right,Countdown_2s.jpg,9,0,9,0,,,,,0,1,1,1,,,,,,,,892.6896849999903,893.8866324999835,1.1969474999932572,,,,89,898.1952992999577,right,1,1.173578499990981,,,,,,,,,Annie,2023-07-18_14h19.28.106,Rewa's Exp,2023.1.2,60.06413647683742,
Countdown_2.5s.mp4,green,red,left,Countdown_2.5s.jpg,9,0,9,0,,,,,0,2,2,4,,,,,,,,897.8139211999951,899.0872468000161,1.273325600021053,,,,90,903.3195064999745,left,1,1.249818999960553,,,,,,,,,Annie,2023-07-18_14h19.28.106,Rewa's Exp,2023.1.2,60.06413647683742,
Countdown_2.5s.mp4,red,green,right,Countdown_2.5s.jpg,9,0,9,0,,,,,0,3,3,0,,,,,,,,903.0166319999844,903.8870578000206,0.8704258000361733,,,,91,908.5222467999556,right,1,0.8472115999902599,,,,,,,,,Annie,2023-07-18_14h19.28.106,Rewa's Exp,2023.1.2,60.06413647683742,
Countdown_2s.mp4,green,red,left,Countdown_2s.jpg,9,0,9,0,,,,,0,4,4,5,,,,,,,,907.8121923999861,908.8699079999933,1.0577156000072137,,,,92,913.3177966999938,left,1,1.0279061999754049,,,,,,,,,Annie,2023-07-18_14h19.28.106,Rewa's Exp,2023.1.2,60.06413647683742,
Countdown_1.5s.mp4,red,green,right,Countdown_1.5s.jpg,9,0,9,0,,,,,0,5,5,2,,,,,,,,912.7775882999995,913.7867017000099,1.009113400010392,,,,93,918.2831692000036,right,1,0.9905419999849983,,,,,,,,,Annie,2023-07-18_14h19.28.106,Rewa's Exp,2023.1.2,60.06413647683742,
Countdown_1.5s.mp4,red,green,right,Countdown_1.5s.jpg,9,0,9,0,,,,,,,,,0,0,0,2,,,,917.7129874000093,918.4368275000015,0.7238400999922305,,,,94,,,,,right,1,0.6941252999822609,,,,,,Annie,2023-07-18_14h19.28.106,Rewa's Exp,2023.1.2,60.06413647683742,
Countdown_2.5s.mp4,red,green,right,Countdown_2.5s.jpg,9,0,9,0,,,,,,,,,0,1,1,0,,,,922.3435018999735,923.703225300007,1.3597234000335447,,,,95,,,,,right,1,1.3365047000115737,,,,,,Annie,2023-07-18_14h19.28.106,Rewa's Exp,2023.1.2,60.06413647683742,
Countdown_2.5s.mp4,green,red,left,Countdown_2.5s.jpg,9,0,9,0,,,,,,,,,0,2,2,4,,,,927.6204684000113,928.8368376999861,1.2163692999747582,,,,96,,,,,left,1,1.1876654999796301,,,,,,Annie,2023-07-18_14h19.28.106,Rewa's Exp,2023.1.2,60.06413647683742,
Countdown_1.5s.mp4,green,red,left,Countdown_1.5s.jpg,9,0,9,0,,,,,,,,,0,3,3,3,,,,932.7454648999847,933.6034653999959,0.8580005000112578,,,,97,,,,,left,1,0.8303872000542469,,,,,,Annie,2023-07-18_14h19.28.106,Rewa's Exp,2023.1.2,60.06413647683742,
Countdown_2s.mp4,green,red,left,Countdown_2s.jpg,9,0,9,0,,,,,,,,,0,4,4,5,,,,937.497275599977,938.3867532000295,0.8894776000524871,,,,98,,,,,left,1,0.8708893000148237,,,,,,Annie,2023-07-18_14h19.28.106,Rewa's Exp,2023.1.2,60.06413647683742,
Countdown_2s.mp4,red,green,right,Countdown_2s.jpg,9,0,9,0,,,,,,,,,0,5,5,1,,,,942.3292523000273,943.1368603999726,0.8076080999453552,,,,99,,,,,right,1,0.7903867000131868,,,,,,Annie,2023-07-18_14h19.28.106,Rewa's Exp,2023.1.2,60.06413647683742,
,,,,,9,0,9,0,,,,,,,,,,,,,,,,,,,,,,,,,,,,,,949.7700644999859,949.7700644999859,949.7700644999859,space,2.950782799976878,Annie,2023-07-18_14h19.28.106,Rewa's Exp,2023.1.2,60.06413647683742,
Countdown_2.5s.mp4,red,green,right,Countdown_2.5s.jpg,10,0,10,0,0,0,0,0,,,,,,,,,,,,950.0449773999862,950.9868336999789,0.9418562999926507,right,1,0.9232053000014275,100,,,,,,,,,,,,,Annie,2023-07-18_14h19.28.106,Rewa's Exp,2023.1.2,60.06413647683742,
Countdown_2s.mp4,red,green,right,Countdown_2s.jpg,10,0,10,0,0,1,1,1,,,,,,,,,,,,954.8845073999837,955.6867773000267,0.8022699000430293,right,1,0.7710276999860071,101,,,,,,,,,,,,,Annie,2023-07-18_14h19.28.106,Rewa's Exp,2023.1.2,60.06413647683742,
Countdown_2s.mp4,green,red,left,Countdown_2s.jpg,10,0,10,0,0,2,2,5,,,,,,,,,,,,959.5943468000041,960.3878543999745,0.7935075999703258,left,1,0.765973900037352,102,,,,,,,,,,,,,Annie,2023-07-18_14h19.28.106,Rewa's Exp,2023.1.2,60.06413647683742,
Countdown_1.5s.mp4,green,red,left,Countdown_1.5s.jpg,10,0,10,0,0,3,3,3,,,,,,,,,,,,964.3085543999914,964.9702509000199,0.6616965000284836,left,1,0.6348988999961875,103,,,,,,,,,,,,,Annie,2023-07-18_14h19.28.106,Rewa's Exp,2023.1.2,60.06413647683742,
Countdown_1.5s.mp4,red,green,right,Countdown_1.5s.jpg,10,0,10,0,0,4,4,2,,,,,,,,,,,,968.8654481000267,969.8701317000086,1.004683599981945,right,1,0.9738102999981493,104,,,,,,,,,,,,,Annie,2023-07-18_14h19.28.106,Rewa's Exp,2023.1.2,60.06413647683742,
Countdown_2.5s.mp4,green,red,left,Countdown_2.5s.jpg,10,0,10,0,0,5,5,4,,,,,,,,,,,,973.7785745000001,974.5367810999742,0.7582065999740735,left,1,0.7326705000014044,105,,,,,,,,,,,,,Annie,2023-07-18_14h19.28.106,Rewa's Exp,2023.1.2,60.06413647683742,
Countdown_2.5s.mp4,green,red,left,Countdown_2.5s.jpg,10,0,10,0,,,,,0,0,0,4,,,,,,,,978.4596874000272,979.3368417000165,0.8771542999893427,,,,106,983.9652994999778,left,1,0.8452281000209041,,,,,,,,,Annie,2023-07-18_14h19.28.106,Rewa's Exp,2023.1.2,60.06413647683742,
Countdown_1.5s.mp4,red,green,right,Countdown_1.5s.jpg,10,0,10,0,,,,,0,1,1,2,,,,,,,,983.3097106000059,984.3200102000264,1.0102996000205167,,,,107,988.8153301999555,right,1,0.9866618000087328,,,,,,,,,Annie,2023-07-18_14h19.28.106,Rewa's Exp,2023.1.2,60.06413647683742,
Countdown_2s.mp4,green,red,left,Countdown_2s.jpg,10,0,10,0,,,,,0,2,2,5,,,,,,,,988.262819399999,989.4033701000153,1.1405507000163198,,,,108,993.768461300002,left,1,1.1212000999948941,,,,,,,,,Annie,2023-07-18_14h19.28.106,Rewa's Exp,2023.1.2,60.06413647683742,
Countdown_2.5s.mp4,red,green,right,Countdown_2.5s.jpg,10,0,10,0,,,,,0,3,3,0,,,,,,,,993.2817538999952,994.1374055999913,0.8556516999960877,,,,109,998.7873416999937,right,1,0.838202300015837,,,,,,,,,Annie,2023-07-18_14h19.28.106,Rewa's Exp,2023.1.2,60.06413647683742,
Countdown_1.5s.mp4,green,red,left,Countdown_1.5s.jpg,10,0,10,0,,,,,0,4,4,3,,,,,,,,998.0251590000116,999.0369407000253,1.011781700013671,,,,110,1003.5307835999993,left,1,0.982528300024569,,,,,,,,,Annie,2023-07-18_14h19.28.106,Rewa's Exp,2023.1.2,60.06413647683742,
Countdown_2s.mp4,red,green,right,Countdown_2s.jpg,10,0,10,0,,,,,0,5,5,1,,,,,,,,1002.982070899976,1004.1369307999848,1.154859900008887,,,,111,1008.4877090000082,right,1,1.1304422999965027,,,,,,,,,Annie,2023-07-18_14h19.28.106,Rewa's Exp,2023.1.2,60.06413647683742,
Countdown_2.5s.mp4,green,red,left,Countdown_2.5s.jpg,10,0,10,0,,,,,,,,,0,0,0,4,,,,1008.0987770999782,1009.3035605999758,1.2047834999975748,,,,112,,,,,left,1,1.1815199999837205,,,,,,Annie,2023-07-18_14h19.28.106,Rewa's Exp,2023.1.2,60.06413647683742,
Countdown_1.5s.mp4,green,red,left,Countdown_1.5s.jpg,10,0,10,0,,,,,,,,,0,1,1,3,,,,1013.2075951999868,1014.3367939000018,1.1291987000149675,,,,113,,,,,left,1,1.0966504999669269,,,,,,Annie,2023-07-18_14h19.28.106,Rewa's Exp,2023.1.2,60.06413647683742,
Countdown_2.5s.mp4,red,green,right,Countdown_2.5s.jpg,10,0,10,0,,,,,,,,,0,2,2,0,,,,1018.2915776000009,1018.9702582000173,0.6786806000163779,,,,114,,,,,right,1,0.6535938000306487,,,,,,Annie,2023-07-18_14h19.28.106,Rewa's Exp,2023.1.2,60.06413647683742,
Countdown_2s.mp4,green,red,left,Countdown_2s.jpg,10,0,10,0,,,,,,,,,0,3,3,5,,,,1022.8912891999935,1023.7869335000287,0.895644300035201,,,,115,,,,,left,1,0.8696302000316791,,,,,,Annie,2023-07-18_14h19.28.106,Rewa's Exp,2023.1.2,60.06413647683742,
Countdown_1.5s.mp4,red,green,right,Countdown_1.5s.jpg,10,0,10,0,,,,,,,,,0,4,4,2,,,,1027.6926487999735,1028.6042727999738,0.9116240000003017,,,,113,,,,,left,0,0.8831383000360802,,,,,,Annie,2023-07-18_14h19.28.106,Rewa's Exp,2023.1.2,60.06413647683742,
Countdown_2s.mp4,red,green,right,Countdown_2s.jpg,10,0,10,0,,,,,,,,,0,5,5,1,,,,1032.5303867000039,1033.6702697,1.139882999996189,,,,114,,,,,right,1,1.1170017999829724,,,,,,Annie,2023-07-18_14h19.28.106,Rewa's Exp,2023.1.2,60.06413647683742,
,,,,,10,0,10,0,,,,,,,,,,,,,,,,,,,,,,,,,,,,,,1040.3033981999615,1040.3033981999615,1040.3033981999615,space,8.937979800044559,Annie,2023-07-18_14h19.28.106,Rewa's Exp,2023.1.2,60.06413647683742,
Countdown_2.5s.mp4,red,green,right,Countdown_2.5s.jpg,11,0,11,0,0,0,0,0,,,,,,,,,,,,1046.56208220002,1047.7541289000073,1.1920466999872588,right,1,1.1746641999925487,115,,,,,,,,,,,,,Annie,2023-07-18_14h19.28.106,Rewa's Exp,2023.1.2,60.06413647683742,
Countdown_2s.mp4,red,green,right,Countdown_2s.jpg,11,0,11,0,0,1,1,1,,,,,,,,,,,,1051.677743999986,1052.5043140000198,0.8265700000338256,right,1,0.7942405000212602,116,,,,,,,,,,,,,Annie,2023-07-18_14h19.28.106,Rewa's Exp,2023.1.2,60.06413647683742,
Countdown_1.5s.mp4,green,red,left,Countdown_1.5s.jpg,11,0,11,0,0,2,2,3,,,,,,,,,,,,1056.3979330000002,1057.153828600014,0.7558956000139005,left,1,0.7381859000306576,117,,,,,,,,,,,,,Annie,2023-07-18_14h19.28.106,Rewa's Exp,2023.1.2,60.06413647683742,
Countdown_2s.mp4,green,red,left,Countdown_2s.jpg,11,0,11,0,0,3,3,5,,,,,,,,,,,,1061.1156268999912,1061.9876865000115,0.8720596000202931,left,1,0.8439744000206701,118,,,,,,,,,,,,,Annie,2023-07-18_14h19.28.106,Rewa's Exp,2023.1.2,60.06413647683742,
Countdown_2.5s.mp4,green,red,left,Countdown_2.5s.jpg,11,0,11,0,0,4,4,4,,,,,,,,,,,,1065.9719380000024,1066.7037245000247,0.731786500022281,left,1,0.7074063000036404,119,,,,,,,,,,,,,Annie,2023-07-18_14h19.28.106,Rewa's Exp,2023.1.2,60.06413647683742,
Countdown_1.5s.mp4,red,green,right,Countdown_1.5s.jpg,11,0,11,0,0,5,5,2,,,,,,,,,,,,1070.5791735000093,1071.28733750002,0.7081640000105835,right,1,0.6762110000126995,120,,,,,,,,,,,,,Annie,2023-07-18_14h19.28.106,Rewa's Exp,2023.1.2,60.06413647683742,
Countdown_2s.mp4,red,green,right,Countdown_2s.jpg,11,0,11,0,,,,,0,0,0,1,,,,,,,,1075.213946199976,1076.3536856999854,1.1397395000094548,,,,121,1080.7195777999586,right,1,1.1065745000378229,,,,,,,,,Annie,2023-07-18_14h19.28.106,Rewa's Exp,2023.1.2,60.06413647683742,
Countdown_1.5s.mp4,green,red,left,Countdown_1.5s.jpg,11,0,11,0,,,,,0,1,1,3,,,,,,,,1080.2414382999996,1081.00398400001,0.7625457000103779,,,,122,1085.7470797999995,left,1,0.7339269999647513,,,,,,,,,Annie,2023-07-18_14h19.28.106,Rewa's Exp,2023.1.2,60.06413647683742,
Countdown_2s.mp4,green,red,left,Countdown_2s.jpg,11,0,11,0,,,,,0,2,2,5,,,,,,,,1084.928758999973,1085.9870422999957,1.0582833000225946,,,,123,1090.434391399962,left,1,1.0397197000565939,,,,,,,,,Annie,2023-07-18_14h19.28.106,Rewa's Exp,2023.1.2,60.06413647683742,
Countdown_2.5s.mp4,red,green,right,Countdown_2.5s.jpg,11,0,11,0,,,,,0,3,3,0,,,,,,,,1089.8780543999746,1090.7544379999745,0.8763835999998264,,,,124,1095.383675899997,right,1,0.8507679000031203,,,,,,,,,Annie,2023-07-18_14h19.28.106,Rewa's Exp,2023.1.2,60.06413647683742,
Countdown_1.5s.mp4,red,green,right,Countdown_1.5s.jpg,11,0,11,0,,,,,0,4,4,2,,,,,,,,1094.7210340999882,1095.637194800016,0.9161607000278309,,,,125,1100.2266405999544,right,1,0.8946942999609746,,,,,,,,,Annie,2023-07-18_14h19.28.106,Rewa's Exp,2023.1.2,60.06413647683742,
Countdown_2.5s.mp4,green,red,left,Countdown_2.5s.jpg,11,0,11,0,,,,,0,5,5,4,,,,,,,,1099.6165928000119,1100.4705070999917,0.853914299979806,,,,126,1105.1218281000038,left,1,0.8312534000142477,,,,,,,,,Annie,2023-07-18_14h19.28.106,Rewa's Exp,2023.1.2,60.06413647683742,
Countdown_2.5s.mp4,red,green,right,Countdown_2.5s.jpg,11,0,11,0,,,,,,,,,0,0,0,0,,,,1104.3980482000043,1105.7537709000171,1.3557227000128478,,,,127,,,,,right,1,1.3225642999750562,,,,,,Annie,2023-07-18_14h19.28.106,Rewa's Exp,2023.1.2,60.06413647683742,
Countdown_2.5s.mp4,green,red,left,Countdown_2.5s.jpg,11,0,11,0,,,,,,,,,0,1,1,4,,,,1109.7249019999872,1110.6873061999795,0.9624041999923065,,,,128,,,,,left,1,0.9307647999958135,,,,,,Annie,2023-07-18_14h19.28.106,Rewa's Exp,2023.1.2,60.06413647683742,
Countdown_2s.mp4,green,red,left,Countdown_2s.jpg,11,0,11,0,,,,,,,,,0,2,2,5,,,,1114.6002135999734,1116.0869908999885,1.486777300015092,,,,129,,,,,left,1,1.4554217000259086,,,,,,Annie,2023-07-18_14h19.28.106,Rewa's Exp,2023.1.2,60.06413647683742,
Countdown_2s.mp4,red,green,right,Countdown_2s.jpg,11,0,11,0,,,,,,,,,0,3,3,1,,,,1120.0045418000082,1120.7205072999932,0.7159654999850318,,,,130,,,,,right,1,0.6840474999626167,,,,,,Annie,2023-07-18_14h19.28.106,Rewa's Exp,2023.1.2,60.06413647683742,
Countdown_1.5s.mp4,green,red,left,Countdown_1.5s.jpg,11,0,11,0,,,,,,,,,0,4,4,3,,,,1124.6335828999872,1125.6703676999896,1.0367848000023514,,,,131,,,,,left,1,1.0066231000237167,,,,,,Annie,2023-07-18_14h19.28.106,Rewa's Exp,2023.1.2,60.06413647683742,
Countdown_1.5s.mp4,red,green,right,Countdown_1.5s.jpg,11,0,11,0,,,,,,,,,0,5,5,2,,,,1129.6392370000249,1130.437250900024,0.798013899999205,,,,132,,,,,right,1,0.76802509999834,,,,,,Annie,2023-07-18_14h19.28.106,Rewa's Exp,2023.1.2,60.06413647683742,
,,,,,11,0,11,0,,,,,,,,,,,,,,,,,,,,,,,,,,,,,,1137.086957499967,1137.086957499967,1137.086957499967,space,2.570734100008849,Annie,2023-07-18_14h19.28.106,Rewa's Exp,2023.1.2,60.06413647683742,
Countdown_1.5s.mp4,green,red,left,Countdown_1.5s.jpg,12,0,12,0,0,0,0,3,,,,,,,,,,,,1136.9937206999748,1137.8371784000192,0.8434577000443824,left,1,0.822483399999328,133,,,,,,,,,,,,,Annie,2023-07-18_14h19.28.106,Rewa's Exp,2023.1.2,60.06413647683742,
Countdown_2s.mp4,red,green,right,Countdown_2s.jpg,12,0,12,0,0,1,1,1,,,,,,,,,,,,1141.738421600021,1142.6217438000022,0.883322199981194,right,1,0.8613738000276498,134,,,,,,,,,,,,,Annie,2023-07-18_14h19.28.106,Rewa's Exp,2023.1.2,60.06413647683742,
Countdown_2.5s.mp4,green,red,left,Countdown_2.5s.jpg,12,0,12,0,0,2,2,4,,,,,,,,,,,,1146.534419899981,1147.6878741999972,1.1534543000161648,left,1,1.120914199971594,135,,,,,,,,,,,,,Annie,2023-07-18_14h19.28.106,Rewa's Exp,2023.1.2,60.06413647683742,
Countdown_1.5s.mp4,red,green,right,Countdown_1.5s.jpg,12,0,12,0,0,3,3,2,,,,,,,,,,,,1151.656782999984,1152.6212082999991,0.9644253000151366,right,1,0.9347313999896869,136,,,,,,,,,,,,,Annie,2023-07-18_14h19.28.106,Rewa's Exp,2023.1.2,60.06413647683742,
Countdown_2.5s.mp4,red,green,right,Countdown_2.5s.jpg,12,0,12,0,0,4,4,0,,,,,,,,,,,,1156.5277119000093,1157.2538283999893,0.7261164999799803,right,1,0.7044600999797694,137,,,,,,,,,,,,,Annie,2023-07-18_14h19.28.106,Rewa's Exp,2023.1.2,60.06413647683742,
Countdown_2s.mp4,green,red,left,Countdown_2s.jpg,12,0,12,0,0,5,5,5,,,,,,,,,,,,1161.1614934999961,1161.9544274000218,0.7929339000256732,left,1,0.7746480000205338,138,,,,,,,,,,,,,Annie,2023-07-18_14h19.28.106,Rewa's Exp,2023.1.2,60.06413647683742,
Countdown_2s.mp4,red,green,right,Countdown_2s.jpg,12,0,12,0,,,,,0,0,0,1,,,,,,,,1165.8911067000008,1166.7039786999812,0.8128719999804161,,,,139,1171.3967229999835,right,1,0.7883239000220783,,,,,,,,,Annie,2023-07-18_14h19.28.106,Rewa's Exp,2023.1.2,60.06413647683742,
Countdown_2s.mp4,green,red,left,Countdown_2s.jpg,12,0,12,0,,,,,0,1,1,5,,,,,,,,1170.6540875000064,1171.8538545999909,1.1997670999844559,,,,140,1176.1594695000094,left,1,1.1694688000134192,,,,,,,,,Annie,2023-07-18_14h19.28.106,Rewa's Exp,2023.1.2,60.06413647683742,
Countdown_1.5s.mp4,green,red,left,Countdown_1.5s.jpg,12,0,12,0,,,,,0,2,2,3,,,,,,,,1175.7521882000146,1176.6037906000274,0.85160240001278,,,,141,1181.257778099971,left,1,0.8240277000004426,,,,,,,,,Annie,2023-07-18_14h19.28.106,Rewa's Exp,2023.1.2,60.06413647683742,
Countdown_2.5s.mp4,green,red,left,Countdown_2.5s.jpg,12,0,12,0,,,,,0,3,3,4,,,,,,,,1180.5594321999815,1181.7037642999785,1.1443320999969728,,,,142,1186.065080899978,left,1,1.1128823999897577,,,,,,,,,Annie,2023-07-18_14h19.28.106,Rewa's Exp,2023.1.2,60.06413647683742,
Countdown_1.5s.mp4,red,green,right,Countdown_1.5s.jpg,12,0,12,0,,,,,0,4,4,2,,,,,,,,1185.6073290000204,1186.7039458000218,1.0966168000013568,,,,143,1191.1128099999623,right,1,1.0650220999959856,,,,,,,,,Annie,2023-07-18_14h19.28.106,Rewa's Exp,2023.1.2,60.06413647683742,
Countdown_2.5s.mp4,red,green,right,Countdown_2.5s.jpg,12,0,12,0,,,,,0,5,5,0,,,,,,,,1190.5815587000106,1191.8541881000274,1.27262940001674,,,,144,1196.0871632999624,right,1,1.2513498999760486,,,,,,,,,Annie,2023-07-18_14h19.28.106,Rewa's Exp,2023.1.2,60.06413647683742,
Countdown_2.5s.mp4,red,green,right,Countdown_2.5s.jpg,12,0,12,0,,,,,,,,,0,0,0,0,,,,1195.7712048999965,1196.7704901000252,0.9992852000286803,,,,145,,,,,right,1,0.9816637000185438,,,,,,Annie,2023-07-18_14h19.28.106,Rewa's Exp,2023.1.2,60.06413647683742,
Countdown_2.5s.mp4,green,red,left,Countdown_2.5s.jpg,12,0,12,0,,,,,,,,,0,1,1,4,,,,1200.6984188000206,1202.0372722999891,1.3388534999685362,,,,146,,,,,left,1,1.3094929999788292,,,,,,Annie,2023-07-18_14h19.28.106,Rewa's Exp,2023.1.2,60.06413647683742,
Countdown_2s.mp4,green,red,left,Countdown_2s.jpg,12,0,12,0,,,,,,,,,0,2,2,5,,,,1205.9475299000042,1207.4039386999793,1.4564087999751791,,,,147,,,,,left,1,1.4289189000264741,,,,,,Annie,2023-07-18_14h19.28.106,Rewa's Exp,2023.1.2,60.06413647683742,
Countdown_2s.mp4,red,green,right,Countdown_2s.jpg,12,0,12,0,,,,,,,,,0,3,3,1,,,,1211.3015467000077,1212.5370977999992,1.2355510999914259,,,,148,,,,,right,1,1.2111261999816634,,,,,,Annie,2023-07-18_14h19.28.106,Rewa's Exp,2023.1.2,60.06413647683742,
Countdown_1.5s.mp4,green,red,left,Countdown_1.5s.jpg,12,0,12,0,,,,,,,,,0,4,4,3,,,,1216.4997025000048,1217.2873721999931,0.7876696999883279,,,,149,,,,,left,1,0.7557218000292778,,,,,,Annie,2023-07-18_14h19.28.106,Rewa's Exp,2023.1.2,60.06413647683742,
Countdown_1.5s.mp4,red,green,right,Countdown_1.5s.jpg,12,0,12,0,,,,,,,,,0,5,5,2,,,,1221.2154513000278,1222.0705407999922,0.8550894999643788,,,,150,,,,,right,1,0.8327840999700129,,,,,,Annie,2023-07-18_14h19.28.106,Rewa's Exp,2023.1.2,60.06413647683742,
,,,,,12,0,12,0,,,,,,,,,,,,,,,,,,,,,,,,,,,,,,1228.7038174999761,1228.7038174999761,1228.7038174999761,space,7.410440800013021,Annie,2023-07-18_14h19.28.106,Rewa's Exp,2023.1.2,60.06413647683742,
Countdown_2.5s.mp4,red,green,right,Countdown_2.5s.jpg,13,0,13,0,0,0,0,0,,,,,,,,,,,,1233.4309876000043,1234.2874009999796,0.8564133999752812,right,1,0.8332499000243843,151,,,,,,,,,,,,,Annie,2023-07-18_14h19.28.106,Rewa's Exp,2023.1.2,60.06413647683742,
Countdown_2s.mp4,red,green,right,Countdown_2s.jpg,13,0,13,0,0,1,1,1,,,,,,,,,,,,1238.2048873999738,1238.8874105000286,0.6825231000548229,right,1,0.6601454999763519,152,,,,,,,,,,,,,Annie,2023-07-18_14h19.28.106,Rewa's Exp,2023.1.2,60.06413647683742,
Countdown_1.5s.mp4,red,green,right,Countdown_1.5s.jpg,13,0,13,0,0,2,2,2,,,,,,,,,,,,1242.832983899978,1243.9206608000095,1.0876769000315107,right,1,1.06452369998442,153,,,,,,,,,,,,,Annie,2023-07-18_14h19.28.106,Rewa's Exp,2023.1.2,60.06413647683742,
Countdown_2.5s.mp4,green,red,left,Countdown_2.5s.jpg,13,0,13,0,0,3,3,4,,,,,,,,,,,,1247.8318256000057,1248.453987899993,0.6221622999873944,left,1,0.6001993000390939,154,,,,,,,,,,,,,Annie,2023-07-18_14h19.28.106,Rewa's Exp,2023.1.2,60.06413647683742,
Countdown_1.5s.mp4,green,red,left,Countdown_1.5s.jpg,13,0,13,0,0,4,4,3,,,,,,,,,,,,1252.3441886000219,1253.037612300017,0.6934236999950372,left,1,0.672397100017406,155,,,,,,,,,,,,,Annie,2023-07-18_14h19.28.106,Rewa's Exp,2023.1.2,60.06413647683742,
Countdown_2s.mp4,green,red,left,Countdown_2s.jpg,13,0,13,0,0,5,5,5,,,,,,,,,,,,1256.9815727000241,1257.7540381000144,0.7724653999903239,left,1,0.7470334000536241,156,,,,,,,,,,,,,Annie,2023-07-18_14h19.28.106,Rewa's Exp,2023.1.2,60.06413647683742,
Countdown_2.5s.mp4,red,green,right,Countdown_2.5s.jpg,13,0,13,0,,,,,0,0,0,0,,,,,,,,1261.6911587999784,1262.3874596999958,0.696300900017377,,,,157,1267.196700999979,right,1,0.6696989000192843,,,,,,,,,Annie,2023-07-18_14h19.28.106,Rewa's Exp,2023.1.2,60.06413647683742,
Countdown_2.5s.mp4,green,red,left,Countdown_2.5s.jpg,13,0,13,0,,,,,0,1,1,4,,,,,,,,1266.2859592000023,1267.3373055999982,1.051346399995964,,,,158,1271.7915566999582,left,1,1.0341955999610946,,,,,,,,,Annie,2023-07-18_14h19.28.106,Rewa's Exp,2023.1.2,60.06413647683742,
Countdown_1.5s.mp4,green,red,left,Countdown_1.5s.jpg,13,0,13,0,,,,,0,2,2,3,,,,,,,,1271.2859632999753,1272.3374214000069,1.0514581000315957,,,,156,1276.7916431999765,right,0,1.0262030999874696,,,,,,,,,Annie,2023-07-18_14h19.28.106,Rewa's Exp,2023.1.2,60.06413647683742,
Countdown_2s.mp4,red,green,right,Countdown_2s.jpg,13,0,13,0,,,,,0,3,3,1,,,,,,,,1276.2852636000025,1277.238967799989,0.9537041999865323,,,,157,1281.790880799992,right,1,0.923257399990689,,,,,,,,,Annie,2023-07-18_14h19.28.106,Rewa's Exp,2023.1.2,60.06413647683742,
Countdown_2s.mp4,green,red,left,Countdown_2s.jpg,13,0,13,0,,,,,0,4,4,5,,,,,,,,1281.190126499976,1282.2214694999857,1.031343000009656,,,,158,1286.6957795000053,left,1,1.0102017999743111,,,,,,,,,Annie,2023-07-18_14h19.28.106,Rewa's Exp,2023.1.2,60.06413647683742,
Countdown_1.5s.mp4,red,green,right,Countdown_1.5s.jpg,13,0,13,0,,,,,0,5,5,2,,,,,,,,1286.1334970999742,1286.9375700000091,0.8040729000349529,,,,159,1291.6390999999712,right,1,0.7870545000187121,,,,,,,,,Annie,2023-07-18_14h19.28.106,Rewa's Exp,2023.1.2,60.06413647683742,
Countdown_1.5s.mp4,red,green,right,Countdown_1.5s.jpg,13,0,13,0,,,,,,,,,0,0,0,2,,,,1290.8589324000059,1291.5874176999787,0.7284852999728173,,,,160,,,,,right,1,0.7098861000267789,,,,,,Annie,2023-07-18_14h19.28.106,Rewa's Exp,2023.1.2,60.06413647683742,
Countdown_2s.mp4,red,green,right,Countdown_2s.jpg,13,0,13,0,,,,,,,,,0,1,1,1,,,,1295.4954648999847,1296.7707670999807,1.2753021999960765,,,,161,,,,,right,1,1.2482295999652706,,,,,,Annie,2023-07-18_14h19.28.106,Rewa's Exp,2023.1.2,60.06413647683742,
Countdown_1.5s.mp4,green,red,left,Countdown_1.5s.jpg,13,0,13,0,,,,,,,,,0,2,2,3,,,,1300.7343418999808,1301.520886400016,0.7865445000352338,,,,162,,,,,left,1,0.7696876999689266,,,,,,Annie,2023-07-18_14h19.28.106,Rewa's Exp,2023.1.2,60.06413647683742,
Countdown_2s.mp4,green,red,left,Countdown_2s.jpg,13,0,13,0,,,,,,,,,0,3,3,5,,,,1305.4642522999784,1306.3208043000195,0.8565520000411198,,,,163,,,,,left,1,0.8242283000145108,,,,,,Annie,2023-07-18_14h19.28.106,Rewa's Exp,2023.1.2,60.06413647683742,
Countdown_2.5s.mp4,red,green,right,Countdown_2.5s.jpg,13,0,13,0,,,,,,,,,0,4,4,0,,,,1310.2270782000269,1311.4706540000043,1.2435757999774069,,,,164,,,,,right,1,1.2128645000047982,,,,,,Annie,2023-07-18_14h19.28.106,Rewa's Exp,2023.1.2,60.06413647683742,
Countdown_2.5s.mp4,green,red,left,Countdown_2.5s.jpg,13,0,13,0,,,,,,,,,0,5,5,4,,,,1315.3825407000259,1317.320690100023,1.9381493999972008,,,,165,,,,,left,1,1.9139561000047252,,,,,,Annie,2023-07-18_14h19.28.106,Rewa's Exp,2023.1.2,60.06413647683742,
,,,,,13,0,13,0,,,,,,,,,,,,,,,,,,,,,,,,,,,,,,1323.953920800006,1323.953920800006,1323.953920800006,space,5.584737500001211,Annie,2023-07-18_14h19.28.106,Rewa's Exp,2023.1.2,60.06413647683742,
Countdown_2s.mp4,green,red,left,Countdown_2s.jpg,14,0,14,0,0,0,0,5,,,,,,,,,,,,1326.8647976000211,1327.5209234000067,0.6561257999856025,left,1,0.6388574000447989,166,,,,,,,,,,,,,Annie,2023-07-18_14h19.28.106,Rewa's Exp,2023.1.2,60.06413647683742,
Countdown_1.5s.mp4,green,red,left,Countdown_1.5s.jpg,14,0,14,0,0,1,1,3,,,,,,,,,,,,1331.4232353999978,1332.454704099975,1.0314686999772675,left,1,1.0012444999883883,167,,,,,,,,,,,,,Annie,2023-07-18_14h19.28.106,Rewa's Exp,2023.1.2,60.06413647683742,
Countdown_2.5s.mp4,green,red,left,Countdown_2.5s.jpg,14,0,14,0,0,2,2,4,,,,,,,,,,,,1336.3920938000083,1337.1375937000266,0.7454999000183307,left,1,0.7204675000393763,168,,,,,,,,,,,,,Annie,2023-07-18_14h19.28.106,Rewa's Exp,2023.1.2,60.06413647683742,
Countdown_2s.mp4,red,green,right,Countdown_2s.jpg,14,0,14,0,0,3,3,1,,,,,,,,,,,,1341.0601828999934,1341.7875144000282,0.7273315000347793,right,1,0.708367699990049,169,,,,,,,,,,,,,Annie,2023-07-18_14h19.28.106,Rewa's Exp,2023.1.2,60.06413647683742,
Countdown_2.5s.mp4,red,green,right,Countdown_2.5s.jpg,14,0,14,0,0,4,4,0,,,,,,,,,,,,1345.6989605000126,1346.4709871999803,0.7720266999676824,right,1,0.748707499995362,170,,,,,,,,,,,,,Annie,2023-07-18_14h19.28.106,Rewa's Exp,2023.1.2,60.06413647683742,
Countdown_1.5s.mp4,red,green,right,Countdown_1.5s.jpg,14,0,14,0,0,5,5,2,,,,,,,,,,,,1350.4157083000173,1351.2880513999844,0.8723430999671109,right,1,0.848147600016091,171,,,,,,,,,,,,,Annie,2023-07-18_14h19.28.106,Rewa's Exp,2023.1.2,60.06413647683742,
Countdown_2.5s.mp4,green,red,left,Countdown_2.5s.jpg,14,0,14,0,,,,,0,0,0,4,,,,,,,,1355.2137437000056,1356.0209031000268,0.8071594000211917,,,,172,1360.7193784999545,left,1,0.7874567999970168,,,,,,,,,Annie,2023-07-18_14h19.28.106,Rewa's Exp,2023.1.2,60.06413647683742,
Countdown_1.5s.mp4,red,green,right,Countdown_1.5s.jpg,14,0,14,0,,,,,0,1,1,2,,,,,,,,1359.9488226000103,1361.070808199991,1.1219855999806896,,,,173,1365.4544306999887,right,1,1.0987051999545656,,,,,,,,,Annie,2023-07-18_14h19.28.106,Rewa's Exp,2023.1.2,60.06413647683742,
Countdown_1.5s.mp4,green,red,left,Countdown_1.5s.jpg,14,0,14,0,,,,,0,2,2,3,,,,,,,,1364.981310400006,1365.8375549999764,0.8562445999705233,,,,174,1370.4869059000048,left,1,0.8263784000300802,,,,,,,,,Annie,2023-07-18_14h19.28.106,Rewa's Exp,2023.1.2,60.06413647683742,
Countdown_2s.mp4,green,red,left,Countdown_2s.jpg,14,0,14,0,,,,,0,3,3,5,,,,,,,,1369.748019599996,1370.737893100013,0.9898735000169836,,,,175,1375.2536244000075,left,1,0.9724484999896958,,,,,,,,,Annie,2023-07-18_14h19.28.106,Rewa's Exp,2023.1.2,60.06413647683742,
Countdown_2s.mp4,red,green,right,Countdown_2s.jpg,14,0,14,0,,,,,0,4,4,1,,,,,,,,1374.6648932999815,1376.0874802999897,1.4225870000082068,,,,176,1380.1705312999547,right,1,1.391379999986384,,,,,,,,,Annie,2023-07-18_14h19.28.106,Rewa's Exp,2023.1.2,60.06413647683742,
Countdown_2.5s.mp4,red,green,right,Countdown_2.5s.jpg,14,0,14,0,,,,,0,5,5,0,,,,,,,,1379.9840908999904,1381.2206801000284,1.2365892000379972,,,,177,1385.4897033000016,right,1,1.208409400016535,,,,,,,,,Annie,2023-07-18_14h19.28.106,Rewa's Exp,2023.1.2,60.06413647683742,
Countdown_2s.mp4,red,green,right,Countdown_2s.jpg,14,0,14,0,,,,,,,,,0,0,0,1,,,,1385.1699587000185,1385.9552818000084,0.7853230999899097,,,,178,,,,,right,1,0.7577237999648787,,,,,,Annie,2023-07-18_14h19.28.106,Rewa's Exp,2023.1.2,60.06413647683742,
Countdown_2.5s.mp4,green,red,left,Countdown_2.5s.jpg,14,0,14,0,,,,,,,,,0,1,1,4,,,,1389.8815760000143,1391.320956200012,1.4393801999976858,,,,179,,,,,left,1,1.4074468999751844,,,,,,Annie,2023-07-18_14h19.28.106,Rewa's Exp,2023.1.2,60.06413647683742,
Countdown_1.5s.mp4,red,green,right,Countdown_1.5s.jpg,14,0,14,0,,,,,,,,,0,2,2,2,,,,1395.233233099978,1396.237547800003,1.0043147000251338,,,,177,,,,,left,0,0.9741654999670573,,,,,,Annie,2023-07-18_14h19.28.106,Rewa's Exp,2023.1.2,60.06413647683742,
Countdown_1.5s.mp4,green,red,left,Countdown_1.5s.jpg,14,0,14,0,,,,,,,,,0,3,3,3,,,,1400.1504838999826,1401.0376594000263,0.8871755000436679,,,,178,,,,,left,1,0.8588719999534078,,,,,,Annie,2023-07-18_14h19.28.106,Rewa's Exp,2023.1.2,60.06413647683742,
Countdown_2.5s.mp4,red,green,right,Countdown_2.5s.jpg,14,0,14,0,,,,,,,,,0,4,4,0,,,,1404.9611103999778,1406.1375458000111,1.1764354000333697,,,,179,,,,,right,1,1.1505837000440806,,,,,,Annie,2023-07-18_14h19.28.106,Rewa's Exp,2023.1.2,60.06413647683742,
Countdown_2s.mp4,green,red,left,Countdown_2s.jpg,14,0,14,0,,,,,,,,,0,5,5,5,,,,1410.0401104000048,1411.2043956000125,1.1642852000077255,,,,180,,,,,left,1,1.1368533000349998,,,,,,Annie,2023-07-18_14h19.28.106,Rewa's Exp,2023.1.2,60.06413647683742,
,,,,,14,0,14,0,,,,,,,,,,,,,,,,,,,,,,,,,,,,,,1417.8541577999713,1417.8541577999713,1417.8541577999713,space,9.43522899999516,Annie,2023-07-18_14h19.28.106,Rewa's Exp,2023.1.2,60.06413647683742,
Countdown_2s.mp4,green,red,left,Countdown_2s.jpg,15,0,15,0,0,0,0,5,,,,,,,,,,,,1424.6015320000006,1425.7042992999777,1.1027672999771312,left,1,1.0799999000155367,181,,,,,,,,,,,,,Annie,2023-07-18_14h19.28.106,Rewa's Exp,2023.1.2,60.06413647683742,
Countdown_2s.mp4,red,green,right,Countdown_2s.jpg,15,0,15,0,0,1,1,1,,,,,,,,,,,,1429.6007097000256,1430.2876481999992,0.6869384999736212,right,1,0.655357500014361,182,,,,,,,,,,,,,Annie,2023-07-18_14h19.28.106,Rewa's Exp,2023.1.2,60.06413647683742,
Countdown_2.5s.mp4,red,green,right,Countdown_2.5s.jpg,15,0,15,0,0,2,2,0,,,,,,,,,,,,1434.198622900003,1435.1210471999948,0.9224242999916896,right,1,0.9060215000063181,183,,,,,,,,,,,,,Annie,2023-07-18_14h19.28.106,Rewa's Exp,2023.1.2,60.06413647683742,
Countdown_2.5s.mp4,green,red,left,Countdown_2.5s.jpg,15,0,15,0,0,3,3,4,,,,,,,,,,,,1439.0557633999852,1439.804260600009,0.7484972000238486,left,1,0.7295281999977306,184,,,,,,,,,,,,,Annie,2023-07-18_14h19.28.106,Rewa's Exp,2023.1.2,60.06413647683742,
Countdown_1.5s.mp4,red,green,right,Countdown_1.5s.jpg,15,0,15,0,0,4,4,2,,,,,,,,,,,,1443.7227548999945,1444.5211725999834,0.7984176999889314,right,1,0.7662510999944061,185,,,,,,,,,,,,,Annie,2023-07-18_14h19.28.106,Rewa's Exp,2023.1.2,60.06413647683742,
Countdown_1.5s.mp4,green,red,left,Countdown_1.5s.jpg,15,0,15,0,0,5,5,3,,,,,,,,,,,,1448.4413386000087,1449.3046366000199,0.8632980000111274,left,1,0.8305263000074774,186,,,,,,,,,,,,,Annie,2023-07-18_14h19.28.106,Rewa's Exp,2023.1.2,60.06413647683742,
Countdown_2.5s.mp4,green,red,left,Countdown_2.5s.jpg,15,0,15,0,,,,,0,0,0,4,,,,,,,,1453.2349883000134,1454.2210563999834,0.986068099969998,,,,187,1458.7406073999591,left,1,0.9655508999712765,,,,,,,,,Annie,2023-07-18_14h19.28.106,Rewa's Exp,2023.1.2,60.06413647683742,
Countdown_2s.mp4,green,red,left,Countdown_2s.jpg,15,0,15,0,,,,,0,1,1,5,,,,,,,,1458.104044799984,1458.9044905999908,0.8004458000068553,,,,188,1463.6095998999663,left,1,0.7682000000495464,,,,,,,,,Annie,2023-07-18_14h19.28.106,Rewa's Exp,2023.1.2,60.06413647683742,
Countdown_2s.mp4,red,green,right,Countdown_2s.jpg,15,0,15,0,,,,,0,2,2,1,,,,,,,,1462.8319119000225,1463.5211552000255,0.6892433000029996,,,,189,1468.3375039999955,right,1,0.6720102999825031,,,,,,,,,Annie,2023-07-18_14h19.28.106,Rewa's Exp,2023.1.2,60.06413647683742,
Countdown_2.5s.mp4,red,green,right,Countdown_2.5s.jpg,15,0,15,0,,,,,0,3,3,0,,,,,,,,1467.4625042999978,1468.3043574999901,0.8418531999923289,,,,190,1472.968119499972,right,1,0.8097684000385925,,,,,,,,,Annie,2023-07-18_14h19.28.106,Rewa's Exp,2023.1.2,60.06413647683742,
Countdown_1.5s.mp4,green,red,left,Countdown_1.5s.jpg,15,0,15,0,,,,,0,4,4,3,,,,,,,,1472.2213901000214,1472.9879032999743,0.7665131999528967,,,,191,1477.7269964999869,left,1,0.7388265000190586,,,,,,,,,Annie,2023-07-18_14h19.28.106,Rewa's Exp,2023.1.2,60.06413647683742,
Countdown_1.5s.mp4,red,green,right,Countdown_1.5s.jpg,15,0,15,0,,,,,0,5,5,2,,,,,,,,1476.8883383999928,1477.6383744999766,0.7500360999838449,,,,192,1482.3939982999582,right,1,0.7278973000356928,,,,,,,,,Annie,2023-07-18_14h19.28.106,Rewa's Exp,2023.1.2,60.06413647683742,
Countdown_2s.mp4,green,red,left,Countdown_2s.jpg,15,0,15,0,,,,,,,,,0,0,0,5,,,,1481.5951875000028,1482.7376304999925,1.1424429999897256,,,,193,,,,,left,1,1.1252211999963038,,,,,,Annie,2023-07-18_14h19.28.106,Rewa's Exp,2023.1.2,60.06413647683742,
Countdown_2s.mp4,red,green,right,Countdown_2s.jpg,15,0,15,0,,,,,,,,,0,1,1,1,,,,1486.645489800023,1487.8709308999823,1.2254410999594256,,,,191,,,,,left,0,1.2031534999841824,,,,,,Annie,2023-07-18_14h19.28.106,Rewa's Exp,2023.1.2,60.06413647683742,
Countdown_1.5s.mp4,green,red,left,Countdown_1.5s.jpg,15,0,15,0,,,,,,,,,0,2,2,3,,,,1491.7977502000285,1492.7213525000261,0.923602299997583,,,,192,,,,,left,1,0.8902933999779634,,,,,,Annie,2023-07-18_14h19.28.106,Rewa's Exp,2023.1.2,60.06413647683742,
Countdown_1.5s.mp4,red,green,right,Countdown_1.5s.jpg,15,0,15,0,,,,,,,,,0,3,3,2,,,,1496.6307511000196,1497.5879377999809,0.9571866999613121,,,,190,,,,,left,0,0.9294175999821164,,,,,,Annie,2023-07-18_14h19.28.106,Rewa's Exp,2023.1.2,60.06413647683742,
Countdown_2.5s.mp4,green,red,left,Countdown_2.5s.jpg,15,0,15,0,,,,,,,,,0,4,4,4,,,,1501.5536051000236,1502.671196900017,1.1175917999935336,,,,188,,,,,right,0,1.094404100032989,,,,,,Annie,2023-07-18_14h19.28.106,Rewa's Exp,2023.1.2,60.06413647683742,
Countdown_2.5s.mp4,red,green,right,Countdown_2.5s.jpg,15,0,15,0,,,,,,,,,0,5,5,0,,,,1506.5770574000198,1507.8545730999904,1.277515699970536,,,,189,,,,,right,1,1.2545994999818504,,,,,,Annie,2023-07-18_14h19.28.106,Rewa's Exp,2023.1.2,60.06413647683742,
,,,,,15,0,15,0,,,,,,,,,,,,,,,,,,,,,,,,,,,,,,1514.5043101999909,1514.5043101999909,1514.5043101999909,space,4.9620027000200935,Annie,2023-07-18_14h19.28.106,Rewa's Exp,2023.1.2,60.06413647683742,
Countdown_1.5s.mp4,green,red,left,Countdown_1.5s.jpg,16,0,16,0,0,0,0,3,,,,,,,,,,,,1516.7569045000128,1517.6212321000057,0.8643275999929756,left,1,0.83504009997705,190,,,,,,,,,,,,,Annie,2023-07-18_14h19.28.106,Rewa's Exp,2023.1.2,60.06413647683742,
Countdown_2s.mp4,red,green,right,Countdown_2s.jpg,16,0,16,0,0,1,1,1,,,,,,,,,,,,1521.5231380999903,1522.1218964,0.5987583000096492,right,1,0.5660267000203021,191,,,,,,,,,,,,,Annie,2023-07-18_14h19.28.106,Rewa's Exp,2023.1.2,60.06413647683742,
Countdown_2.5s.mp4,red,green,right,Countdown_2.5s.jpg,16,0,16,0,0,2,2,0,,,,,,,,,,,,1526.0310364000034,1526.9378796999808,0.9068432999774814,right,1,0.8901955999899656,192,,,,,,,,,,,,,Annie,2023-07-18_14h19.28.106,Rewa's Exp,2023.1.2,60.06413647683742,
Countdown_1.5s.mp4,red,green,right,Countdown_1.5s.jpg,16,0,16,0,0,3,3,2,,,,,,,,,,,,1530.8311722999788,1531.4712411999935,0.6400689000147395,right,1,0.6086106000002474,193,,,,,,,,,,,,,Annie,2023-07-18_14h19.28.106,Rewa's Exp,2023.1.2,60.06413647683742,
Countdown_2.5s.mp4,green,red,left,Countdown_2.5s.jpg,16,0,16,0,0,4,4,4,,,,,,,,,,,,1535.3942722000065,1537.021189799998,1.6269175999914296,left,1,1.597259900008794,194,,,,,,,,,,,,,Annie,2023-07-18_14h19.28.106,Rewa's Exp,2023.1.2,60.06413647683742,
Countdown_2s.mp4,green,red,left,Countdown_2s.jpg,16,0,16,0,0,5,5,5,,,,,,,,,,,,1540.9535259000259,1542.2878246000037,1.3342986999778077,left,1,1.3110082999919541,195,,,,,,,,,,,,,Annie,2023-07-18_14h19.28.106,Rewa's Exp,2023.1.2,60.06413647683742,
Countdown_2s.mp4,red,green,right,Countdown_2s.jpg,16,0,16,0,,,,,0,0,0,1,,,,,,,,1546.1816285999957,1546.888000099978,0.7063714999821968,,,,196,1551.6872720000101,right,1,0.6740308000007644,,,,,,,,,Annie,2023-07-18_14h19.28.106,Rewa's Exp,2023.1.2,60.06413647683742,
Countdown_2.5s.mp4,red,green,right,Countdown_2.5s.jpg,16,0,16,0,,,,,0,1,1,0,,,,,,,,1550.8275350999902,1551.6378684000229,0.8103333000326529,,,,197,1556.3331565000117,right,1,0.7900885999551974,,,,,,,,,Annie,2023-07-18_14h19.28.106,Rewa's Exp,2023.1.2,60.06413647683742,
Countdown_2s.mp4,green,red,left,Countdown_2s.jpg,16,0,16,0,,,,,0,2,2,5,,,,,,,,1555.5786612000084,1556.5880119000212,1.0093507000128739,,,,198,1561.0842364999698,left,1,0.9822353000054136,,,,,,,,,Annie,2023-07-18_14h19.28.106,Rewa's Exp,2023.1.2,60.06413647683742,
Countdown_1.5s.mp4,green,red,left,Countdown_1.5s.jpg,16,0,16,0,,,,,0,3,3,3,,,,,,,,1560.5599784000078,1561.4721429999918,0.9121645999839529,,,,199,1566.065583199961,left,1,0.8797553000040352,,,,,,,,,Annie,2023-07-18_14h19.28.106,Rewa's Exp,2023.1.2,60.06413647683742,
Countdown_2.5s.mp4,green,red,left,Countdown_2.5s.jpg,16,0,16,0,,,,,0,4,4,4,,,,,,,,1565.394125299994,1566.3218263000017,0.9277010000078008,,,,200,1570.899782499997,left,1,0.9022209999966435,,,,,,,,,Annie,2023-07-18_14h19.28.106,Rewa's Exp,2023.1.2,60.06413647683742,
Countdown_1.5s.mp4,red,green,right,Countdown_1.5s.jpg,16,0,16,0,,,,,0,5,5,2,,,,,,,,1570.2296826000093,1571.0878922999837,0.8582096999743953,,,,198,1575.735231700004,left,0,0.8351185999927111,,,,,,,,,Annie,2023-07-18_14h19.28.106,Rewa's Exp,2023.1.2,60.06413647683742,
Countdown_2.5s.mp4,red,green,right,Countdown_2.5s.jpg,16,0,16,0,,,,,,,,,0,0,0,0,,,,1575.0068529000273,1575.8388653000002,0.8320123999728821,,,,199,,,,,right,1,0.8008125000051223,,,,,,Annie,2023-07-18_14h19.28.106,Rewa's Exp,2023.1.2,60.06413647683742,
Countdown_2.5s.mp4,green,red,left,Countdown_2.5s.jpg,16,0,16,0,,,,,,,,,0,1,1,4,,,,1579.776043299993,1581.1878734999918,1.4118301999988034,,,,200,,,,,left,1,1.392300199950114,,,,,,Annie,2023-07-18_14h19.28.106,Rewa's Exp,2023.1.2,60.06413647683742,
Countdown_2s.mp4,red,green,right,Countdown_2s.jpg,16,0,16,0,,,,,,,,,0,2,2,1,,,,1585.1449406999745,1586.0550378999906,0.9100972000160255,,,,201,,,,,right,1,0.8795062999706715,,,,,,Annie,2023-07-18_14h19.28.106,Rewa's Exp,2023.1.2,60.06413647683742,
Countdown_1.5s.mp4,red,green,right,Countdown_1.5s.jpg,16,0,16,0,,,,,,,,,0,3,3,2,,,,1589.9745754000032,1590.7714135000133,0.7968381000100635,,,,202,,,,,right,1,0.7779677000362426,,,,,,Annie,2023-07-18_14h19.28.106,Rewa's Exp,2023.1.2,60.06413647683742,
Countdown_1.5s.mp4,green,red,left,Countdown_1.5s.jpg,16,0,16,0,,,,,,,,,0,4,4,3,,,,1594.7316336000222,1595.8048716000048,1.0732379999826662,,,,203,,,,,left,1,1.0446533999638632,,,,,,Annie,2023-07-18_14h19.28.106,Rewa's Exp,2023.1.2,60.06413647683742,
Countdown_2s.mp4,green,red,left,Countdown_2s.jpg,16,0,16,0,,,,,,,,,0,5,5,5,,,,1599.7601432999945,1600.988448499993,1.228305199998431,,,,204,,,,,left,1,1.2086088999640197,,,,,,Annie,2023-07-18_14h19.28.106,Rewa's Exp,2023.1.2,60.06413647683742,
,,,,,16,0,16,0,,,,,,,,,,,,,,,,,,,,,,,,,,,,,,1607.637987299997,1607.637987299997,1607.637987299997,space,4.108000000007451,Annie,2023-07-18_14h19.28.106,Rewa's Exp,2023.1.2,60.06413647683742,
Countdown_2s.mp4,green,red,left,Countdown_2s.jpg,17,0,17,0,0,0,0,5,,,,,,,,,,,,1609.0682139000273,1610.1047784999828,1.0365645999554545,left,1,1.0046444999752566,205,,,,,,,,,,,,,Annie,2023-07-18_14h19.28.106,Rewa's Exp,2023.1.2,60.06413647683742,
Countdown_1.5s.mp4,red,green,right,Countdown_1.5s.jpg,17,0,17,0,0,1,1,2,,,,,,,,,,,,1614.0743134000222,1614.8217444000184,0.7474309999961406,right,1,0.7174808999989182,206,,,,,,,,,,,,,Annie,2023-07-18_14h19.28.106,Rewa's Exp,2023.1.2,60.06413647683742,
Countdown_2.5s.mp4,red,green,right,Countdown_2.5s.jpg,17,0,17,0,0,2,2,0,,,,,,,,,,,,1618.7517400999786,1619.4381383999716,0.6863982999930158,right,1,0.664724699978251,207,,,,,,,,,,,,,Annie,2023-07-18_14h19.28.106,Rewa's Exp,2023.1.2,60.06413647683742,
Countdown_2s.mp4,red,green,right,Countdown_2s.jpg,17,0,17,0,0,3,3,1,,,,,,,,,,,,1623.3407465000055,1624.021423899976,0.6806773999705911,right,1,0.6513508000061847,208,,,,,,,,,,,,,Annie,2023-07-18_14h19.28.106,Rewa's Exp,2023.1.2,60.06413647683742,
Countdown_2.5s.mp4,green,red,left,Countdown_2.5s.jpg,17,0,17,0,0,4,4,4,,,,,,,,,,,,1627.9542317999876,1629.4379317000275,1.4836999000399373,left,1,1.4635590999969281,209,,,,,,,,,,,,,Annie,2023-07-18_14h19.28.106,Rewa's Exp,2023.1.2,60.06413647683742,
Countdown_1.5s.mp4,green,red,left,Countdown_1.5s.jpg,17,0,17,0,0,5,5,3,,,,,,,,,,,,1633.3539695999934,1634.2552022999735,0.901232699980028,left,1,0.8779551000334322,210,,,,,,,,,,,,,Annie,2023-07-18_14h19.28.106,Rewa's Exp,2023.1.2,60.06413647683742,
Countdown_2s.mp4,green,red,left,Countdown_2s.jpg,17,0,17,0,,,,,0,0,0,5,,,,,,,,1638.1715388000011,1639.3047678000294,1.1332290000282228,,,,211,1643.6771429000073,left,1,1.1007649999810383,,,,,,,,,Annie,2023-07-18_14h19.28.106,Rewa's Exp,2023.1.2,60.06413647683742,
Countdown_1.5s.mp4,red,green,right,Countdown_1.5s.jpg,17,0,17,0,,,,,0,1,1,2,,,,,,,,1643.247267699975,1644.121841199987,0.8745735000120476,,,,212,1648.7528815999976,right,1,0.8571560999844223,,,,,,,,,Annie,2023-07-18_14h19.28.106,Rewa's Exp,2023.1.2,60.06413647683742,
Countdown_2s.mp4,red,green,right,Countdown_2s.jpg,17,0,17,0,,,,,0,2,2,1,,,,,,,,1648.0801919000223,1649.3382127999794,1.258020899957046,,,,213,1653.5857651999686,right,1,1.2249723999993876,,,,,,,,,Annie,2023-07-18_14h19.28.106,Rewa's Exp,2023.1.2,60.06413647683742,
Countdown_1.5s.mp4,green,red,left,Countdown_1.5s.jpg,17,0,17,0,,,,,0,3,3,3,,,,,,,,1653.2342962999828,1654.2214752999716,0.9871789999888279,,,,214,1658.7398984999745,left,1,0.9658360999892466,,,,,,,,,Annie,2023-07-18_14h19.28.106,Rewa's Exp,2023.1.2,60.06413647683742,
Countdown_2.5s.mp4,green,red,left,Countdown_2.5s.jpg,17,0,17,0,,,,,0,4,4,4,,,,,,,,1658.1508051999845,1658.88823099999,0.7374258000054397,,,,215,1663.6564374999725,left,1,0.7056940000038594,,,,,,,,,Annie,2023-07-18_14h19.28.106,Rewa's Exp,2023.1.2,60.06413647683742,
Countdown_2.5s.mp4,red,green,right,Countdown_2.5s.jpg,17,0,17,0,,,,,0,5,5,0,,,,,,,,1662.7923657000065,1664.5382038999815,1.745838199974969,,,,216,1668.2979933999595,right,1,1.72850379999727,,,,,,,,,Annie,2023-07-18_14h19.28.106,Rewa's Exp,2023.1.2,60.06413647683742,
Countdown_2s.mp4,green,red,left,Countdown_2s.jpg,17,0,17,0,,,,,,,,,0,0,0,5,,,,1668.448763900029,1669.722166499996,1.2734025999670848,,,,217,,,,,left,1,1.255907999991905,,,,,,Annie,2023-07-18_14h19.28.106,Rewa's Exp,2023.1.2,60.06413647683742,
Countdown_2.5s.mp4,red,green,right,Countdown_2.5s.jpg,17,0,17,0,,,,,,,,,0,1,1,0,,,,1673.6429378999746,1674.4387500999728,0.7958121999981813,,,,218,,,,,right,1,0.7651926999678835,,,,,,Annie,2023-07-18_14h19.28.106,Rewa's Exp,2023.1.2,60.06413647683742,
Countdown_2.5s.mp4,green,red,left,Countdown_2.5s.jpg,17,0,17,0,,,,,,,,,0,2,2,4,,,,1678.3946569000254,1679.3218650000053,0.9272080999799073,,,,219,,,,,left,1,0.9025615999707952,,,,,,Annie,2023-07-18_14h19.28.106,Rewa's Exp,2023.1.2,60.06413647683742,
Countdown_1.5s.mp4,red,green,right,Countdown_1.5s.jpg,17,0,17,0,,,,,,,,,0,3,3,2,,,,1683.2473147999845,1684.3217012999812,1.0743864999967627,,,,220,,,,,right,1,1.0419589999946766,,,,,,Annie,2023-07-18_14h19.28.106,Rewa's Exp,2023.1.2,60.06413647683742,
Countdown_1.5s.mp4,green,red,left,Countdown_1.5s.jpg,17,0,17,0,,,,,,,,,0,4,4,3,,,,1688.2799849000294,1689.1216616000165,0.841676699987147,,,,221,,,,,left,1,0.808885799953714,,,,,,Annie,2023-07-18_14h19.28.106,Rewa's Exp,2023.1.2,60.06413647683742,
Countdown_2s.mp4,red,green,right,Countdown_2s.jpg,17,0,17,0,,,,,,,,,0,5,5,1,,,,1693.0501974999788,1694.2881126999855,1.2379152000066824,,,,222,,,,,right,1,1.206247899972368,,,,,,Annie,2023-07-18_14h19.28.106,Rewa's Exp,2023.1.2,60.06413647683742,
,,,,,17,0,17,0,,,,,,,,,,,,,,,,,,,,,,,,,,,,,,1700.9380529999617,1700.9380529999617,1700.9380529999617,space,3.6082089000265114,Annie,2023-07-18_14h19.28.106,Rewa's Exp,2023.1.2,60.06413647683742,
