Countdown,color1,color2,correct,screenshot,trials.thisRepN,trials.thisTrialN,trials.thisN,trials.thisIndex,trials_6040.thisRepN,trials_6040.thisTrialN,trials_6040.thisN,trials_6040.thisIndex,trials_5743.thisRepN,trials_5743.thisTrialN,trials_5743.thisN,trials_5743.thisIndex,trials_5446.thisRepN,trials_5446.thisTrialN,trials_5446.thisN,trials_5446.thisIndex,key_resp_2.started,key_resp_2.keys,key_resp_2.rt,Videoshowstart,Videoshowstop,VideoshowRT,response.keys,response.corr,response.rt,total_score,Left_3.started,response_2.keys,response_2.corr,response_2.rt,response_3.keys,response_3.corr,response_3.rt,text_2.started,text_5.started,text_6.started,text_6.stopped,key_resp.keys,key_resp.rt,participant,date,expName,psychopyVersion,frameRate,
,,,,,,,,,,,,,,,,,,,,,61.93989460001467,space,0.44906559999799356,,,,,,,,,,,,,,,,,,,,,fouad,2023-07-16_15h05.07.441,Rewa's Exp,2023.1.2,60.019290207014336,
Countdown_1.5s.mp4,red,green,right,Countdown_1.5s.jpg,0,0,0,0,0,0,0,2,,,,,,,,,,,,59.65183019998949,60.34140609996393,0.689575899974443,right,1,0.6591609000461176,1,,,,,,,,,,,,,,fouad,2023-07-16_15h05.07.441,Rewa's Exp,2023.1.2,60.019290207014336,
Countdown_2.5s.mp4,red,green,right,Countdown_2.5s.jpg,0,0,0,0,0,1,1,0,,,,,,,,,,,,64.24786319996929,65.10857339994982,0.8607101999805309,right,1,0.8307179000112228,2,,,,,,,,,,,,,,fouad,2023-07-16_15h05.07.441,Rewa's Exp,2023.1.2,60.019290207014336,
Countdown_1.5s.mp4,green,red,left,Countdown_1.5s.jpg,0,0,0,0,0,2,2,3,,,,,,,,,,,,69.01001039997209,70.00792029994773,0.9979098999756388,left,1,0.9650782000389881,3,,,,,,,,,,,,,,fouad,2023-07-16_15h05.07.441,Rewa's Exp,2023.1.2,60.019290207014336,
Countdown_2s.mp4,green,red,left,Countdown_2s.jpg,0,0,0,0,0,3,3,5,,,,,,,,,,,,73.9426977999974,74.59108829998877,0.6483904999913648,right,0,0.6238950000260957,1,,,,,,,,,,,,,,fouad,2023-07-16_15h05.07.441,Rewa's Exp,2023.1.2,60.019290207014336,
Countdown_2s.mp4,red,green,right,Countdown_2s.jpg,0,0,0,0,0,4,4,1,,,,,,,,,,,,78.50980559998425,79.15798779996112,0.6481821999768727,right,1,0.6168788999784738,2,,,,,,,,,,,,,,fouad,2023-07-16_15h05.07.441,Rewa's Exp,2023.1.2,60.019290207014336,
Countdown_2.5s.mp4,green,red,left,Countdown_2.5s.jpg,0,0,0,0,0,5,5,4,,,,,,,,,,,,83.08791359997122,83.74128849996487,0.6533748999936506,left,1,0.6230421999935061,3,,,,,,,,,,,,,,fouad,2023-07-16_15h05.07.441,Rewa's Exp,2023.1.2,60.019290207014336,
Countdown_2.5s.mp4,red,green,right,Countdown_2.5s.jpg,0,0,0,0,,,,,0,0,0,0,,,,,,,,87.48637769999914,88.1586462999694,0.6722685999702662,,,,4,92.88402410002891,right,1,0.6483101000194438,,,,,,,,,,fouad,2023-07-16_15h05.07.441,Rewa's Exp,2023.1.2,60.019290207014336,
Countdown_2s.mp4,red,green,right,Countdown_2s.jpg,0,0,0,0,,,,,0,1,1,1,,,,,,,,92.0968673999887,92.69144959998084,0.5945821999921463,,,,5,97.49449509999249,right,1,0.5750800999812782,,,,,,,,,,fouad,2023-07-16_15h05.07.441,Rewa's Exp,2023.1.2,60.019290207014336,
Countdown_1.5s.mp4,green,red,left,Countdown_1.5s.jpg,0,0,0,0,,,,,0,2,2,3,,,,,,,,96.64539889997104,98.14181469997857,1.4964158000075258,,,,3,102.04299470002297,None,0,,,,,,,,,,,fouad,2023-07-16_15h05.07.441,Rewa's Exp,2023.1.2,60.019290207014336,
Countdown_2.5s.mp4,green,red,left,Countdown_2.5s.jpg,0,0,0,0,,,,,0,3,3,4,,,,,,,,102.04745279997587,102.72452989994781,0.6770770999719389,,,,1,107.44507479999447,right,0,0.647105099982582,,,,,,,,,,fouad,2023-07-16_15h05.07.441,Rewa's Exp,2023.1.2,60.019290207014336,
Countdown_1.5s.mp4,red,green,right,Countdown_1.5s.jpg,0,0,0,0,,,,,0,4,4,2,,,,,,,,106.65416529995855,107.4082457999466,0.7540804999880493,,,,-1,112.05179300002055,left,0,0.7370834000175819,,,,,,,,,,fouad,2023-07-16_15h05.07.441,Rewa's Exp,2023.1.2,60.019290207014336,
Countdown_2s.mp4,green,red,left,Countdown_2s.jpg,0,0,0,0,,,,,0,5,5,5,,,,,,,,111.37751339998795,112.07461729994975,0.6971038999618031,,,,0,116.77514979999978,left,1,0.6783938999869861,,,,,,,,,,fouad,2023-07-16_15h05.07.441,Rewa's Exp,2023.1.2,60.019290207014336,
Countdown_2s.mp4,red,green,right,Countdown_2s.jpg,0,0,0,0,,,,,,,,,0,0,0,1,,,,115.80339379998622,116.44136259995867,0.637968799972441,,,,1,,,,,right,1,0.6199891999713145,,,,,,,fouad,2023-07-16_15h05.07.441,Rewa's Exp,2023.1.2,60.019290207014336,
Countdown_2s.mp4,green,red,left,Countdown_2s.jpg,0,0,0,0,,,,,,,,,0,1,1,5,,,,120.36658709996846,121.25810189999174,0.8915148000232875,,,,2,,,,,left,1,0.8720271000056528,,,,,,,fouad,2023-07-16_15h05.07.441,Rewa's Exp,2023.1.2,60.019290207014336,
Countdown_2.5s.mp4,red,green,right,Countdown_2.5s.jpg,0,0,0,0,,,,,,,,,0,2,2,0,,,,125.21940159995575,125.95792249997612,0.7385209000203758,,,,3,,,,,right,1,0.7152717999997549,,,,,,,fouad,2023-07-16_15h05.07.441,Rewa's Exp,2023.1.2,60.019290207014336,
Countdown_2.5s.mp4,green,red,left,Countdown_2.5s.jpg,0,0,0,0,,,,,,,,,0,3,3,4,,,,129.870867599966,130.72461229999317,0.8537447000271641,,,,4,,,,,left,1,0.8325524000101723,,,,,,,fouad,2023-07-16_15h05.07.441,Rewa's Exp,2023.1.2,60.019290207014336,
Countdown_1.5s.mp4,red,green,right,Countdown_1.5s.jpg,0,0,0,0,,,,,,,,,0,4,4,2,,,,134.6357652999577,135.40803890000097,0.7722736000432633,,,,5,,,,,right,1,0.7474727999651805,,,,,,,fouad,2023-07-16_15h05.07.441,Rewa's Exp,2023.1.2,60.019290207014336,
Countdown_1.5s.mp4,green,red,left,Countdown_1.5s.jpg,0,0,0,0,,,,,,,,,0,5,5,3,,,,139.3544896999956,140.07488869997906,0.7203989999834448,,,,6,,,,,left,1,0.701458299998194,,,,,,,fouad,2023-07-16_15h05.07.441,Rewa's Exp,2023.1.2,60.019290207014336,
,,,,,0,0,0,0,,,,,,,,,,,,,,,,,,,,,,,,,,,,,,146.62050270003965,146.62050270003965,146.62050270003965,147.63298960000975,space,2.337139700015541,fouad,2023-07-16_15h05.07.441,Rewa's Exp,2023.1.2,60.019290207014336,
Countdown_2s.mp4,green,red,left,Countdown_2s.jpg,1,0,1,0,0,0,0,5,,,,,,,,,,,,146.39990349998698,147.02498769998783,0.6250842000008561,right,0,0.6001455999794416,4,,,,,,,,,,,,,,fouad,2023-07-16_15h05.07.441,Rewa's Exp,2023.1.2,60.019290207014336,
Countdown_1.5s.mp4,green,red,left,Countdown_1.5s.jpg,1,0,1,0,0,1,1,3,,,,,,,,,,,,150.98155739996582,151.7579689999693,0.7764116000034846,right,0,0.7454552999697626,2,,,,,,,,,,,,,,fouad,2023-07-16_15h05.07.441,Rewa's Exp,2023.1.2,60.019290207014336,
Countdown_2s.mp4,red,green,right,Countdown_2s.jpg,1,0,1,0,0,2,2,1,,,,,,,,,,,,155.66996769997058,156.69126429996686,1.0212965999962762,right,1,0.9928690000087954,3,,,,,,,,,,,,,,fouad,2023-07-16_15h05.07.441,Rewa's Exp,2023.1.2,60.019290207014336,
Countdown_1.5s.mp4,red,green,right,Countdown_1.5s.jpg,1,0,1,0,0,3,3,2,,,,,,,,,,,,160.59578839997994,161.6245562999975,1.0287679000175558,right,1,1.0119399999966845,4,,,,,,,,,,,,,,fouad,2023-07-16_15h05.07.441,Rewa's Exp,2023.1.2,60.019290207014336,
Countdown_2.5s.mp4,red,green,right,Countdown_2.5s.jpg,1,0,1,0,0,4,4,0,,,,,,,,,,,,165.51243779994547,166.30841539998073,0.7959776000352576,left,0,0.7754722000099719,2,,,,,,,,,,,,,,fouad,2023-07-16_15h05.07.441,Rewa's Exp,2023.1.2,60.019290207014336,
Countdown_2.5s.mp4,green,red,left,Countdown_2.5s.jpg,1,0,1,0,0,5,5,4,,,,,,,,,,,,170.27395329996943,171.0914092999883,0.8174560000188649,left,1,0.7903250000090338,3,,,,,,,,,,,,,,fouad,2023-07-16_15h05.07.441,Rewa's Exp,2023.1.2,60.019290207014336,
Countdown_2.5s.mp4,green,red,left,Countdown_2.5s.jpg,1,0,1,0,,,,,0,0,0,4,,,,,,,,175.01468589995056,175.8413758999668,0.8266900000162423,,,,4,180.41231109999353,left,1,0.8002552000107244,,,,,,,,,,fouad,2023-07-16_15h05.07.441,Rewa's Exp,2023.1.2,60.019290207014336,
Countdown_2s.mp4,green,red,left,Countdown_2s.jpg,1,0,1,0,,,,,0,1,1,5,,,,,,,,179.77690449997317,180.69141819997458,0.9145137000014074,,,,5,185.17455699999118,left,1,0.8861845000064932,,,,,,,,,,fouad,2023-07-16_15h05.07.441,Rewa's Exp,2023.1.2,60.019290207014336,
Countdown_1.5s.mp4,green,red,left,Countdown_1.5s.jpg,1,0,1,0,,,,,0,2,2,3,,,,,,,,184.65352029999485,185.77470529999118,1.1211849999963306,,,,3,190.05114380002487,right,0,1.0889841999742202,,,,,,,,,,fouad,2023-07-16_15h05.07.441,Rewa's Exp,2023.1.2,60.019290207014336,
Countdown_2.5s.mp4,red,green,right,Countdown_2.5s.jpg,1,0,1,0,,,,,0,3,3,0,,,,,,,,189.69052039994858,190.5749270999804,0.8844067000318319,,,,4,195.0881545000011,right,1,0.8526101000024937,,,,,,,,,,fouad,2023-07-16_15h05.07.441,Rewa's Exp,2023.1.2,60.019290207014336,
Countdown_2s.mp4,red,green,right,Countdown_2s.jpg,1,0,1,0,,,,,0,4,4,1,,,,,,,,194.48551279999083,195.2248525999603,0.7393397999694571,,,,2,199.88314049999462,left,0,0.7215037999558263,,,,,,,,,,fouad,2023-07-16_15h05.07.441,Rewa's Exp,2023.1.2,60.019290207014336,
Countdown_1.5s.mp4,red,green,right,Countdown_1.5s.jpg,1,0,1,0,,,,,0,5,5,2,,,,,,,,199.12270399997942,199.92467009997927,0.801966099999845,,,,0,204.52033760002814,left,0,0.7814757999731228,,,,,,,,,,fouad,2023-07-16_15h05.07.441,Rewa's Exp,2023.1.2,60.019290207014336,
Countdown_1.5s.mp4,green,red,left,Countdown_1.5s.jpg,1,0,1,0,,,,,,,,,0,0,0,3,,,,203.8359806999797,204.87481639999896,1.0388357000192627,,,,1,,,,,left,1,1.0216011000447907,,,,,,,fouad,2023-07-16_15h05.07.441,Rewa's Exp,2023.1.2,60.019290207014336,
Countdown_2.5s.mp4,red,green,right,Countdown_2.5s.jpg,1,0,1,0,,,,,,,,,0,1,1,0,,,,208.79434509994462,209.50853969994932,0.7141946000047028,,,,2,,,,,right,1,0.6930274000042118,,,,,,,fouad,2023-07-16_15h05.07.441,Rewa's Exp,2023.1.2,60.019290207014336,
Countdown_2s.mp4,red,green,right,Countdown_2s.jpg,1,0,1,0,,,,,,,,,0,2,2,1,,,,213.4441988999606,214.45791239995742,1.0137134999968112,,,,0,,,,,left,0,0.9951237000059336,,,,,,,fouad,2023-07-16_15h05.07.441,Rewa's Exp,2023.1.2,60.019290207014336,
Countdown_2.5s.mp4,green,red,left,Countdown_2.5s.jpg,1,0,1,0,,,,,,,,,0,3,3,4,,,,218.36114709998947,219.17494649998844,0.8137993999989703,,,,1,,,,,left,1,0.7893846000079066,,,,,,,fouad,2023-07-16_15h05.07.441,Rewa's Exp,2023.1.2,60.019290207014336,
Countdown_2s.mp4,green,red,left,Countdown_2s.jpg,1,0,1,0,,,,,,,,,0,4,4,5,,,,223.10870219999924,224.3745898999623,1.2658876999630593,,,,2,,,,,left,1,1.243684499990195,,,,,,,fouad,2023-07-16_15h05.07.441,Rewa's Exp,2023.1.2,60.019290207014336,
Countdown_1.5s.mp4,red,green,right,Countdown_1.5s.jpg,1,0,1,0,,,,,,,,,0,5,5,2,,,,228.3001377999899,229.15817119996063,0.8580333999707364,,,,3,,,,,right,1,0.8263277999940328,,,,,,,fouad,2023-07-16_15h05.07.441,Rewa's Exp,2023.1.2,60.019290207014336,
,,,,,1,0,1,0,,,,,,,,,,,,,,,,,,,,,,,,,,,,,,235.68344260001322,235.68344260001322,235.68344260001322,236.68318190000718,space,1.8735517000313848,fouad,2023-07-16_15h05.07.441,Rewa's Exp,2023.1.2,60.019290207014336,
Countdown_2s.mp4,green,red,left,Countdown_2s.jpg,2,0,2,0,0,0,0,5,,,,,,,,,,,,234.9727842999855,235.82491329999175,0.8521290000062436,left,1,0.8345119000296108,4,,,,,,,,,,,,,,fouad,2023-07-16_15h05.07.441,Rewa's Exp,2023.1.2,60.019290207014336,
Countdown_1.5s.mp4,red,green,right,Countdown_1.5s.jpg,2,0,2,0,0,1,1,2,,,,,,,,,,,,239.7803107999498,240.54154539998854,0.7612346000387333,right,1,0.7305400999612175,5,,,,,,,,,,,,,,fouad,2023-07-16_15h05.07.441,Rewa's Exp,2023.1.2,60.019290207014336,
Countdown_2.5s.mp4,green,red,left,Countdown_2.5s.jpg,2,0,2,0,0,2,2,4,,,,,,,,,,,,244.45210579998093,245.57475319999503,1.1226474000141025,left,1,1.0996435999986716,6,,,,,,,,,,,,,,fouad,2023-07-16_15h05.07.441,Rewa's Exp,2023.1.2,60.019290207014336,
Countdown_2.5s.mp4,red,green,right,Countdown_2.5s.jpg,2,0,2,0,0,3,3,0,,,,,,,,,,,,249.50081539998064,250.4249346999568,0.9241192999761552,right,1,0.8994007000001147,7,,,,,,,,,,,,,,fouad,2023-07-16_15h05.07.441,Rewa's Exp,2023.1.2,60.019290207014336,
Countdown_1.5s.mp4,green,red,left,Countdown_1.5s.jpg,2,0,2,0,0,4,4,3,,,,,,,,,,,,254.33670879999408,255.44158689997857,1.1048780999844894,right,0,1.0786145000020042,5,,,,,,,,,,,,,,fouad,2023-07-16_15h05.07.441,Rewa's Exp,2023.1.2,60.019290207014336,
Countdown_2s.mp4,red,green,right,Countdown_2s.jpg,2,0,2,0,0,5,5,1,,,,,,,,,,,,259.3367741999682,260.64176249998854,1.3049883000203408,right,1,1.2784921000129543,6,,,,,,,,,,,,,,fouad,2023-07-16_15h05.07.441,Rewa's Exp,2023.1.2,60.019290207014336,
Countdown_2s.mp4,green,red,left,Countdown_2s.jpg,2,0,2,0,,,,,0,0,0,5,,,,,,,,264.55097979999846,265.29164109996054,0.7406612999620847,,,,7,269.9485917999991,left,1,0.7116634999983944,,,,,,,,,,fouad,2023-07-16_15h05.07.441,Rewa's Exp,2023.1.2,60.019290207014336,
Countdown_2s.mp4,red,green,right,Countdown_2s.jpg,2,0,2,0,,,,,0,1,1,1,,,,,,,,269.17774769995594,270.3751417999738,1.1973941000178456,,,,5,274.5754066000227,left,0,1.1743006000178866,,,,,,,,,,fouad,2023-07-16_15h05.07.441,Rewa's Exp,2023.1.2,60.019290207014336,
Countdown_2.5s.mp4,red,green,right,Countdown_2.5s.jpg,2,0,2,0,,,,,0,2,2,0,,,,,,,,274.34939059999306,274.97495899995556,0.6255683999625035,,,,6,279.74700590001885,right,1,0.5943320000078529,,,,,,,,,,fouad,2023-07-16_15h05.07.441,Rewa's Exp,2023.1.2,60.019290207014336,
Countdown_1.5s.mp4,green,red,left,Countdown_1.5s.jpg,2,0,2,0,,,,,0,3,3,3,,,,,,,,278.8641210999922,279.5915973999654,0.7274762999732047,,,,7,284.261788600008,left,1,0.7035662000416778,,,,,,,,,,fouad,2023-07-16_15h05.07.441,Rewa's Exp,2023.1.2,60.019290207014336,
Countdown_2.5s.mp4,green,red,left,Countdown_2.5s.jpg,2,0,2,0,,,,,0,4,4,4,,,,,,,,283.5115851999726,284.4419212999637,0.9303360999911092,,,,8,288.9092251000111,left,1,0.9041819000267424,,,,,,,,,,fouad,2023-07-16_15h05.07.441,Rewa's Exp,2023.1.2,60.019290207014336,
Countdown_1.5s.mp4,red,green,right,Countdown_1.5s.jpg,2,0,2,0,,,,,0,5,5,2,,,,,,,,288.3489713000017,289.14241189998575,0.7934405999840237,,,,9,293.7465946000302,right,1,0.7620154999895021,,,,,,,,,,fouad,2023-07-16_15h05.07.441,Rewa's Exp,2023.1.2,60.019290207014336,
Countdown_2.5s.mp4,red,green,right,Countdown_2.5s.jpg,2,0,2,0,,,,,,,,,0,0,0,0,,,,293.11932599998545,294.0083379999851,0.8890119999996386,,,,10,,,,,right,1,0.8648180000018328,,,,,,,fouad,2023-07-16_15h05.07.441,Rewa's Exp,2023.1.2,60.019290207014336,
Countdown_1.5s.mp4,red,green,right,Countdown_1.5s.jpg,2,0,2,0,,,,,,,,,0,1,1,2,,,,297.95276189997094,298.6083488999866,0.6555870000156574,,,,11,,,,,right,1,0.6231649999972433,,,,,,,fouad,2023-07-16_15h05.07.441,Rewa's Exp,2023.1.2,60.019290207014336,
Countdown_2s.mp4,green,red,left,Countdown_2s.jpg,2,0,2,0,,,,,,,,,0,2,2,5,,,,302.5066473999759,303.24146469996776,0.7348172999918461,,,,12,,,,,left,1,0.7176423000055365,,,,,,,fouad,2023-07-16_15h05.07.441,Rewa's Exp,2023.1.2,60.019290207014336,
Countdown_2.5s.mp4,green,red,left,Countdown_2.5s.jpg,2,0,2,0,,,,,,,,,0,3,3,4,,,,307.1514935999876,308.2916282999795,1.1401346999919042,,,,13,,,,,left,1,1.119141600036528,,,,,,,fouad,2023-07-16_15h05.07.441,Rewa's Exp,2023.1.2,60.019290207014336,
Countdown_2s.mp4,red,green,right,Countdown_2s.jpg,2,0,2,0,,,,,,,,,0,4,4,1,,,,312.1747666999581,312.84162439999636,0.6668577000382356,,,,14,,,,,right,1,0.649636099988129,,,,,,,fouad,2023-07-16_15h05.07.441,Rewa's Exp,2023.1.2,60.019290207014336,
Countdown_1.5s.mp4,green,red,left,Countdown_1.5s.jpg,2,0,2,0,,,,,,,,,0,5,5,3,,,,316.7735344999819,317.65866019995883,0.8851256999769248,,,,15,,,,,left,1,0.8657773999730125,,,,,,,fouad,2023-07-16_15h05.07.441,Rewa's Exp,2023.1.2,60.019290207014336,
,,,,,2,0,2,0,,,,,,,,,,,,,,,,,,,,,,,,,,,,,,324.20009850000497,324.20009850000497,324.20009850000497,325.2000194999855,space,3.42935910000233,fouad,2023-07-16_15h05.07.441,Rewa's Exp,2023.1.2,60.019290207014336,
Countdown_1.5s.mp4,red,green,right,Countdown_1.5s.jpg,3,0,3,0,0,0,0,2,,,,,,,,,,,,325.0433683999581,326.1584416999831,1.1150733000249602,right,1,1.0829577000113204,16,,,,,,,,,,,,,,fouad,2023-07-16_15h05.07.441,Rewa's Exp,2023.1.2,60.019290207014336,
Countdown_1.5s.mp4,green,red,left,Countdown_1.5s.jpg,3,0,3,0,0,1,1,3,,,,,,,,,,,,330.0938451999682,331.2582519999705,1.1644068000023253,left,1,1.1372254000161774,17,,,,,,,,,,,,,,fouad,2023-07-16_15h05.07.441,Rewa's Exp,2023.1.2,60.019290207014336,
Countdown_2.5s.mp4,green,red,left,Countdown_2.5s.jpg,3,0,3,0,0,2,2,4,,,,,,,,,,,,335.16673089994583,336.09177339996677,0.9250425000209361,right,0,0.9047038999851793,15,,,,,,,,,,,,,,fouad,2023-07-16_15h05.07.441,Rewa's Exp,2023.1.2,60.019290207014336,
Countdown_2s.mp4,red,green,right,Countdown_2s.jpg,3,0,3,0,0,3,3,1,,,,,,,,,,,,339.99608819995774,340.7247593999491,0.7286711999913678,right,1,0.6989752000081353,16,,,,,,,,,,,,,,fouad,2023-07-16_15h05.07.441,Rewa's Exp,2023.1.2,60.019290207014336,
Countdown_2.5s.mp4,red,green,right,Countdown_2.5s.jpg,3,0,3,0,0,4,4,0,,,,,,,,,,,,344.6330282999552,345.3765981999459,0.743569899990689,right,1,0.7174229000229388,17,,,,,,,,,,,,,,fouad,2023-07-16_15h05.07.441,Rewa's Exp,2023.1.2,60.019290207014336,
Countdown_2s.mp4,green,red,left,Countdown_2s.jpg,3,0,3,0,0,5,5,5,,,,,,,,,,,,349.2716193999513,349.85854049999034,0.5869211000390351,left,1,0.5594483999884687,18,,,,,,,,,,,,,,fouad,2023-07-16_15h05.07.441,Rewa's Exp,2023.1.2,60.019290207014336,
Countdown_2.5s.mp4,green,red,left,Countdown_2.5s.jpg,3,0,3,0,,,,,0,0,0,4,,,,,,,,353.7858350999886,354.42517899995437,0.6393438999657519,,,,19,359.1834947000025,left,1,0.6131492999847978,,,,,,,,,,fouad,2023-07-16_15h05.07.441,Rewa's Exp,2023.1.2,60.019290207014336,
Countdown_2.5s.mp4,red,green,right,Countdown_2.5s.jpg,3,0,3,0,,,,,0,1,1,0,,,,,,,,358.3400508999475,359.1417739999597,0.8017231000121683,,,,20,363.73766769998474,right,1,0.7784565999754705,,,,,,,,,,fouad,2023-07-16_15h05.07.441,Rewa's Exp,2023.1.2,60.019290207014336,
Countdown_1.5s.mp4,red,green,right,Countdown_1.5s.jpg,3,0,3,0,,,,,0,2,2,2,,,,,,,,363.0536750999745,364.09177599998657,1.0381009000120685,,,,18,368.4513369000051,left,0,1.0090569999883883,,,,,,,,,,fouad,2023-07-16_15h05.07.441,Rewa's Exp,2023.1.2,60.019290207014336,
Countdown_2s.mp4,red,green,right,Countdown_2s.jpg,3,0,3,0,,,,,0,3,3,1,,,,,,,,368.00980589998653,368.6425840999582,0.6327781999716535,,,,19,373.4074443000136,right,1,0.6066464000032283,,,,,,,,,,fouad,2023-07-16_15h05.07.441,Rewa's Exp,2023.1.2,60.019290207014336,
Countdown_2s.mp4,green,red,left,Countdown_2s.jpg,3,0,3,0,,,,,0,4,4,5,,,,,,,,372.5694972999627,373.25846129999263,0.6889640000299551,,,,20,377.96698229998583,left,1,0.6705398000194691,,,,,,,,,,fouad,2023-07-16_15h05.07.441,Rewa's Exp,2023.1.2,60.019290207014336,
Countdown_1.5s.mp4,green,red,left,Countdown_1.5s.jpg,3,0,3,0,,,,,0,5,5,3,,,,,,,,377.1976257999777,378.20848339999793,1.0108576000202447,,,,21,382.5952084999881,left,1,0.9859873999957927,,,,,,,,,,fouad,2023-07-16_15h05.07.441,Rewa's Exp,2023.1.2,60.019290207014336,
Countdown_1.5s.mp4,green,red,left,Countdown_1.5s.jpg,3,0,3,0,,,,,,,,,0,0,0,3,,,,382.11977179994574,383.15842469997006,1.0386529000243172,,,,22,,,,,left,1,1.0072681000456214,,,,,,,fouad,2023-07-16_15h05.07.441,Rewa's Exp,2023.1.2,60.019290207014336,
Countdown_2.5s.mp4,green,red,left,Countdown_2.5s.jpg,3,0,3,0,,,,,,,,,0,1,1,4,,,,387.0772048999788,387.8917816999601,0.8145767999812961,,,,23,,,,,left,1,0.793914899986703,,,,,,,fouad,2023-07-16_15h05.07.441,Rewa's Exp,2023.1.2,60.019290207014336,
Countdown_2.5s.mp4,red,green,right,Countdown_2.5s.jpg,3,0,3,0,,,,,,,,,0,2,2,0,,,,391.79594629997155,392.7919963999884,0.9960501000168733,,,,21,,,,,left,0,0.9718651000293903,,,,,,,fouad,2023-07-16_15h05.07.441,Rewa's Exp,2023.1.2,60.019290207014336,
Countdown_2s.mp4,red,green,right,Countdown_2s.jpg,3,0,3,0,,,,,,,,,0,3,3,1,,,,396.759395299945,397.50848689995473,0.7490916000097059,,,,22,,,,,right,1,0.7204250000067987,,,,,,,fouad,2023-07-16_15h05.07.441,Rewa's Exp,2023.1.2,60.019290207014336,
Countdown_2s.mp4,green,red,left,Countdown_2s.jpg,3,0,3,0,,,,,,,,,0,4,4,5,,,,401.4403203999973,402.19291189999785,0.7525915000005625,,,,23,,,,,left,1,0.7195702000171877,,,,,,,fouad,2023-07-16_15h05.07.441,Rewa's Exp,2023.1.2,60.019290207014336,
Countdown_1.5s.mp4,red,green,right,Countdown_1.5s.jpg,3,0,3,0,,,,,,,,,0,5,5,2,,,,406.110939199978,407.0255331999506,0.914593999972567,,,,21,,,,,left,0,0.8893588000210002,,,,,,,fouad,2023-07-16_15h05.07.441,Rewa's Exp,2023.1.2,60.019290207014336,
,,,,,3,0,3,0,,,,,,,,,,,,,,,,,,,,,,,,,,,,,,413.59181770001305,413.59181770001305,413.59181770001305,414.6001982000307,space,2.3965449999668635,fouad,2023-07-16_15h05.07.441,Rewa's Exp,2023.1.2,60.019290207014336,
Countdown_1.5s.mp4,red,green,right,Countdown_1.5s.jpg,4,0,4,0,0,0,0,2,,,,,,,,,,,,413.3902006999706,414.2254077999969,0.8352071000263095,left,0,0.8082850999780931,19,,,,,,,,,,,,,,fouad,2023-07-16_15h05.07.441,Rewa's Exp,2023.1.2,60.019290207014336,
Countdown_1.5s.mp4,green,red,left,Countdown_1.5s.jpg,4,0,4,0,0,1,1,3,,,,,,,,,,,,418.1721760999644,418.9586953999824,0.7865193000179715,left,1,0.7636228000046685,20,,,,,,,,,,,,,,fouad,2023-07-16_15h05.07.441,Rewa's Exp,2023.1.2,60.019290207014336,
Countdown_2s.mp4,green,red,left,Countdown_2s.jpg,4,0,4,0,0,2,2,5,,,,,,,,,,,,422.8409831999452,423.75872719998006,0.9177440000348724,left,1,0.8946925000054762,21,,,,,,,,,,,,,,fouad,2023-07-16_15h05.07.441,Rewa's Exp,2023.1.2,60.019290207014336,
Countdown_2s.mp4,red,green,right,Countdown_2s.jpg,4,0,4,0,0,3,3,1,,,,,,,,,,,,427.7247205999447,428.4418291999609,0.7171086000162177,right,1,0.6909539999905974,22,,,,,,,,,,,,,,fouad,2023-07-16_15h05.07.441,Rewa's Exp,2023.1.2,60.019290207014336,
Countdown_2.5s.mp4,red,green,right,Countdown_2.5s.jpg,4,0,4,0,0,4,4,0,,,,,,,,,,,,432.36378049995983,433.875664399995,1.5118839000351727,right,1,1.4921815000125207,23,,,,,,,,,,,,,,fouad,2023-07-16_15h05.07.441,Rewa's Exp,2023.1.2,60.019290207014336,
Countdown_2.5s.mp4,green,red,left,Countdown_2.5s.jpg,4,0,4,0,0,5,5,4,,,,,,,,,,,,437.8210624999483,438.40879059996223,0.5877281000139192,left,1,0.5707492000074126,24,,,,,,,,,,,,,,fouad,2023-07-16_15h05.07.441,Rewa's Exp,2023.1.2,60.019290207014336,
Countdown_1.5s.mp4,green,red,left,Countdown_1.5s.jpg,4,0,4,0,,,,,0,0,0,3,,,,,,,,442.35792209999636,442.9097819000017,0.5518598000053316,,,,25,447.75550560001284,left,1,0.5207139999838546,,,,,,,,,,fouad,2023-07-16_15h05.07.441,Rewa's Exp,2023.1.2,60.019290207014336,
Countdown_2.5s.mp4,green,red,left,Countdown_2.5s.jpg,4,0,4,0,,,,,0,1,1,4,,,,,,,,446.8300440000021,447.6085622999817,0.7785182999796234,,,,26,452.22765290003736,left,1,0.7453822999959812,,,,,,,,,,fouad,2023-07-16_15h05.07.441,Rewa's Exp,2023.1.2,60.019290207014336,
Countdown_2s.mp4,red,green,right,Countdown_2s.jpg,4,0,4,0,,,,,0,2,2,1,,,,,,,,451.57572699995944,452.40861379995476,0.8328867999953218,,,,27,456.97328540001763,right,1,0.8082823000149801,,,,,,,,,,fouad,2023-07-16_15h05.07.441,Rewa's Exp,2023.1.2,60.019290207014336,
Countdown_2s.mp4,green,red,left,Countdown_2s.jpg,4,0,4,0,,,,,0,3,3,5,,,,,,,,456.3100495999679,456.875484899967,0.5654352999990806,,,,28,461.70767020003404,left,1,0.5371022999752313,,,,,,,,,,fouad,2023-07-16_15h05.07.441,Rewa's Exp,2023.1.2,60.019290207014336,
Countdown_1.5s.mp4,red,green,right,Countdown_1.5s.jpg,4,0,4,0,,,,,0,4,4,2,,,,,,,,460.795773299993,461.5086044999771,0.7128311999840662,,,,29,466.19318120001117,right,1,0.6931486999965273,,,,,,,,,,fouad,2023-07-16_15h05.07.441,Rewa's Exp,2023.1.2,60.019290207014336,
Countdown_2.5s.mp4,red,green,right,Countdown_2.5s.jpg,4,0,4,0,,,,,0,5,5,0,,,,,,,,465.4322425999562,466.22581149998587,0.7935689000296406,,,,30,470.8298278999864,right,1,0.7753927999874577,,,,,,,,,,fouad,2023-07-16_15h05.07.441,Rewa's Exp,2023.1.2,60.019290207014336,
Countdown_2.5s.mp4,red,green,right,Countdown_2.5s.jpg,4,0,4,0,,,,,,,,,0,0,0,0,,,,470.16483209998114,470.94200739997905,0.7771752999979071,,,,31,,,,,right,1,0.7457227000268176,,,,,,,fouad,2023-07-16_15h05.07.441,Rewa's Exp,2023.1.2,60.019290207014336,
Countdown_2.5s.mp4,green,red,left,Countdown_2.5s.jpg,4,0,4,0,,,,,,,,,0,1,1,4,,,,474.8541186999646,476.04210319998674,1.1879845000221394,,,,32,,,,,left,1,1.1603297999827191,,,,,,,fouad,2023-07-16_15h05.07.441,Rewa's Exp,2023.1.2,60.019290207014336,
Countdown_1.5s.mp4,red,green,right,Countdown_1.5s.jpg,4,0,4,0,,,,,,,,,0,2,2,2,,,,479.98994909995236,480.6086447999696,0.6186957000172697,,,,33,,,,,right,1,0.6014818999683484,,,,,,,fouad,2023-07-16_15h05.07.441,Rewa's Exp,2023.1.2,60.019290207014336,
Countdown_2s.mp4,green,red,left,Countdown_2s.jpg,4,0,4,0,,,,,,,,,0,3,3,5,,,,484.50359869998647,485.37623419996817,0.8726354999816976,,,,34,,,,,left,1,0.8489045000169426,,,,,,,fouad,2023-07-16_15h05.07.441,Rewa's Exp,2023.1.2,60.019290207014336,
Countdown_2s.mp4,red,green,right,Countdown_2s.jpg,4,0,4,0,,,,,,,,,0,4,4,1,,,,489.31088069995167,490.0253479999956,0.714467300043907,,,,35,,,,,right,1,0.6879538999637589,,,,,,,fouad,2023-07-16_15h05.07.441,Rewa's Exp,2023.1.2,60.019290207014336,
Countdown_1.5s.mp4,green,red,left,Countdown_1.5s.jpg,4,0,4,0,,,,,,,,,0,5,5,3,,,,494.00552239996614,494.7755150999874,0.7699927000212483,,,,36,,,,,left,1,0.7455137000069954,,,,,,,fouad,2023-07-16_15h05.07.441,Rewa's Exp,2023.1.2,60.019290207014336,
,,,,,4,0,4,0,,,,,,,,,,,,,,,,,,,,,,,,,,,,,,501.3005959999864,501.3005959999864,501.3005959999864,502.3005223000073,space,2.103966200025752,fouad,2023-07-16_15h05.07.441,Rewa's Exp,2023.1.2,60.019290207014336,
Countdown_2s.mp4,red,green,right,Countdown_2s.jpg,5,0,5,0,0,0,0,1,,,,,,,,,,,,500.82048539997777,501.5601864999626,0.7397010999848135,right,1,0.7140236999839544,37,,,,,,,,,,,,,,fouad,2023-07-16_15h05.07.441,Rewa's Exp,2023.1.2,60.019290207014336,
Countdown_1.5s.mp4,red,green,right,Countdown_1.5s.jpg,5,0,5,0,0,1,1,2,,,,,,,,,,,,505.4537032999797,506.1085713999928,0.6548681000131182,left,0,0.6247969000251032,35,,,,,,,,,,,,,,fouad,2023-07-16_15h05.07.441,Rewa's Exp,2023.1.2,60.019290207014336,
Countdown_1.5s.mp4,green,red,left,Countdown_1.5s.jpg,5,0,5,0,0,2,2,3,,,,,,,,,,,,510.0048057999811,510.87613329995656,0.8713274999754503,left,1,0.8416196000180207,36,,,,,,,,,,,,,,fouad,2023-07-16_15h05.07.441,Rewa's Exp,2023.1.2,60.019290207014336,
Countdown_2s.mp4,green,red,left,Countdown_2s.jpg,5,0,5,0,0,3,3,5,,,,,,,,,,,,514.8334101999644,516.1698038999457,1.3363936999812722,left,1,1.302175399963744,37,,,,,,,,,,,,,,fouad,2023-07-16_15h05.07.441,Rewa's Exp,2023.1.2,60.019290207014336,
Countdown_2.5s.mp4,green,red,left,Countdown_2.5s.jpg,5,0,5,0,0,4,4,4,,,,,,,,,,,,520.4579964999575,521.3255198999541,0.8675233999965712,left,1,0.8461246999795549,38,,,,,,,,,,,,,,fouad,2023-07-16_15h05.07.441,Rewa's Exp,2023.1.2,60.019290207014336,
Countdown_2.5s.mp4,red,green,right,Countdown_2.5s.jpg,5,0,5,0,0,5,5,0,,,,,,,,,,,,525.2916438999819,526.1922894999734,0.9006455999915488,right,1,0.8752050999901257,39,,,,,,,,,,,,,,fouad,2023-07-16_15h05.07.441,Rewa's Exp,2023.1.2,60.019290207014336,
Countdown_2.5s.mp4,green,red,left,Countdown_2.5s.jpg,5,0,5,0,,,,,0,0,0,4,,,,,,,,530.0854471999919,530.9421332999482,0.8566860999562778,,,,40,535.4830403000233,left,1,0.82510319998255,,,,,,,,,,fouad,2023-07-16_15h05.07.441,Rewa's Exp,2023.1.2,60.019290207014336,
Countdown_2s.mp4,red,green,right,Countdown_2s.jpg,5,0,5,0,,,,,0,1,1,1,,,,,,,,534.8339492999949,535.426131699991,0.5921823999960907,,,,41,540.2315557000111,right,1,0.5744282000232488,,,,,,,,,,fouad,2023-07-16_15h05.07.441,Rewa's Exp,2023.1.2,60.019290207014336,
Countdown_2s.mp4,green,red,left,Countdown_2s.jpg,5,0,5,0,,,,,0,2,2,5,,,,,,,,539.3627846999443,540.1088104999508,0.7460258000064641,,,,42,544.7604417999974,left,1,0.7248669000109658,,,,,,,,,,fouad,2023-07-16_15h05.07.441,Rewa's Exp,2023.1.2,60.019290207014336,
Countdown_1.5s.mp4,red,green,right,Countdown_1.5s.jpg,5,0,5,0,,,,,0,3,3,2,,,,,,,,544.01114279998,544.7259258999838,0.7147831000038423,,,,43,549.408782500017,right,1,0.6922210000338964,,,,,,,,,,fouad,2023-07-16_15h05.07.441,Rewa's Exp,2023.1.2,60.019290207014336,
Countdown_1.5s.mp4,green,red,left,Countdown_1.5s.jpg,5,0,5,0,,,,,0,4,4,3,,,,,,,,548.7064141999581,549.5254290999728,0.8190149000147358,,,,44,554.1040286000352,left,1,0.7895345999859273,,,,,,,,,,fouad,2023-07-16_15h05.07.441,Rewa's Exp,2023.1.2,60.019290207014336,
Countdown_2.5s.mp4,red,green,right,Countdown_2.5s.jpg,5,0,5,0,,,,,0,5,5,0,,,,,,,,553.419021699985,554.0924444999546,0.6734227999695577,,,,45,558.8166255000397,right,1,0.6437089999672025,,,,,,,,,,fouad,2023-07-16_15h05.07.441,Rewa's Exp,2023.1.2,60.019290207014336,
Countdown_2.5s.mp4,green,red,left,Countdown_2.5s.jpg,5,0,5,0,,,,,,,,,0,0,0,4,,,,558.0277803999488,558.7254990999936,0.6977187000447884,,,,43,,,,,right,0,0.667461600038223,,,,,,,fouad,2023-07-16_15h05.07.441,Rewa's Exp,2023.1.2,60.019290207014336,
Countdown_2s.mp4,green,red,left,Countdown_2s.jpg,5,0,5,0,,,,,,,,,0,1,1,5,,,,562.6362568999757,563.7419611999649,1.1057042999891564,,,,41,,,,,right,0,1.0750426999875344,,,,,,,fouad,2023-07-16_15h05.07.441,Rewa's Exp,2023.1.2,60.019290207014336,
Countdown_2s.mp4,red,green,right,Countdown_2s.jpg,5,0,5,0,,,,,,,,,0,2,2,1,,,,567.6786408999469,568.4258135999553,0.7471727000083774,,,,39,,,,,left,0,0.720748400024604,,,,,,,fouad,2023-07-16_15h05.07.441,Rewa's Exp,2023.1.2,60.019290207014336,
Countdown_1.5s.mp4,red,green,right,Countdown_1.5s.jpg,5,0,5,0,,,,,,,,,0,3,3,2,,,,572.3579181999667,573.1587634999887,0.800845300022047,,,,40,,,,,right,1,0.7783771000104025,,,,,,,fouad,2023-07-16_15h05.07.441,Rewa's Exp,2023.1.2,60.019290207014336,
Countdown_2.5s.mp4,red,green,right,Countdown_2.5s.jpg,5,0,5,0,,,,,,,,,0,4,4,0,,,,577.0713754999451,577.79201559996,0.7206401000148617,,,,38,,,,,left,0,0.6959458000492305,,,,,,,fouad,2023-07-16_15h05.07.441,Rewa's Exp,2023.1.2,60.019290207014336,
Countdown_1.5s.mp4,green,red,left,Countdown_1.5s.jpg,5,0,5,0,,,,,,,,,0,5,5,3,,,,581.7160243999679,582.8754376999568,1.1594132999889553,,,,36,,,,,right,0,1.139573200023733,,,,,,,fouad,2023-07-16_15h05.07.441,Rewa's Exp,2023.1.2,60.019290207014336,
,,,,,5,0,5,0,,,,,,,,,,,,,,,,,,,,,,,,,,,,,,589.4173415999976,589.4173415999976,589.4173415999976,590.4173281000112,space,2.076330500014592,fouad,2023-07-16_15h05.07.441,Rewa's Exp,2023.1.2,60.019290207014336,
Countdown_2s.mp4,green,red,left,Countdown_2s.jpg,6,0,6,0,0,0,0,5,,,,,,,,,,,,588.899982199946,590.0261496999883,1.1261675000423566,left,1,1.1073571000015363,37,,,,,,,,,,,,,,fouad,2023-07-16_15h05.07.441,Rewa's Exp,2023.1.2,60.019290207014336,
Countdown_1.5s.mp4,green,red,left,Countdown_1.5s.jpg,6,0,6,0,0,1,1,3,,,,,,,,,,,,593.9374301999924,594.5755939999945,0.6381638000020757,left,1,0.6141747000510804,38,,,,,,,,,,,,,,fouad,2023-07-16_15h05.07.441,Rewa's Exp,2023.1.2,60.019290207014336,
Countdown_2.5s.mp4,green,red,left,Countdown_2.5s.jpg,6,0,6,0,0,2,2,4,,,,,,,,,,,,598.4971427999553,599.6588053999585,1.1616626000031829,left,1,1.134940000018105,39,,,,,,,,,,,,,,fouad,2023-07-16_15h05.07.441,Rewa's Exp,2023.1.2,60.019290207014336,
Countdown_1.5s.mp4,red,green,right,Countdown_1.5s.jpg,6,0,6,0,0,3,3,2,,,,,,,,,,,,603.5674109999673,604.2429681999492,0.6755571999819949,right,1,0.6564744000206701,40,,,,,,,,,,,,,,fouad,2023-07-16_15h05.07.441,Rewa's Exp,2023.1.2,60.019290207014336,
Countdown_2.5s.mp4,red,green,right,Countdown_2.5s.jpg,6,0,6,0,0,4,4,0,,,,,,,,,,,,608.2110867999727,609.3920775000006,1.1809907000279054,right,1,1.1641814999748021,41,,,,,,,,,,,,,,fouad,2023-07-16_15h05.07.441,Rewa's Exp,2023.1.2,60.019290207014336,
Countdown_2s.mp4,red,green,right,Countdown_2s.jpg,6,0,6,0,0,5,5,1,,,,,,,,,,,,613.2787912999629,614.0090607999591,0.7302694999962114,right,1,0.6978207000065595,42,,,,,,,,,,,,,,fouad,2023-07-16_15h05.07.441,Rewa's Exp,2023.1.2,60.019290207014336,
Countdown_2.5s.mp4,green,red,left,Countdown_2.5s.jpg,6,0,6,0,,,,,0,0,0,4,,,,,,,,617.8907730999636,618.9755358999828,1.0847628000192344,,,,43,623.2883387000184,left,1,1.0684578000218607,,,,,,,,,,fouad,2023-07-16_15h05.07.441,Rewa's Exp,2023.1.2,60.019290207014336,
Countdown_2s.mp4,red,green,right,Countdown_2s.jpg,6,0,6,0,,,,,0,1,1,1,,,,,,,,622.9223120999523,623.6431820999715,0.7208700000192039,,,,44,628.3199156000046,right,1,0.6922920999932103,,,,,,,,,,fouad,2023-07-16_15h05.07.441,Rewa's Exp,2023.1.2,60.019290207014336,
Countdown_1.5s.mp4,red,green,right,Countdown_1.5s.jpg,6,0,6,0,,,,,0,2,2,2,,,,,,,,627.5682610999793,628.1256333999918,0.5573723000125028,,,,45,632.9658074000035,right,1,0.5359700000262819,,,,,,,,,,fouad,2023-07-16_15h05.07.441,Rewa's Exp,2023.1.2,60.019290207014336,
Countdown_2.5s.mp4,red,green,right,Countdown_2.5s.jpg,6,0,6,0,,,,,0,3,3,0,,,,,,,,632.047208199976,632.8091350999894,0.76192690001335,,,,46,637.4448630000115,right,1,0.7366359999869019,,,,,,,,,,fouad,2023-07-16_15h05.07.441,Rewa's Exp,2023.1.2,60.019290207014336,
Countdown_1.5s.mp4,green,red,left,Countdown_1.5s.jpg,6,0,6,0,,,,,0,4,4,3,,,,,,,,636.7258780999691,637.7423646999523,1.0164865999831818,,,,47,642.1234995999839,left,1,0.9851070999866351,,,,,,,,,,fouad,2023-07-16_15h05.07.441,Rewa's Exp,2023.1.2,60.019290207014336,
Countdown_2s.mp4,green,red,left,Countdown_2s.jpg,6,0,6,0,,,,,0,5,5,5,,,,,,,,641.6485636999714,642.6758316999767,1.0272680000052787,,,,48,647.0461842000368,left,1,1.007135100022424,,,,,,,,,,fouad,2023-07-16_15h05.07.441,Rewa's Exp,2023.1.2,60.019290207014336,
Countdown_2s.mp4,red,green,right,Countdown_2s.jpg,6,0,6,0,,,,,,,,,0,0,0,1,,,,646.6270149999764,647.5761392999557,0.949124299979303,,,,49,,,,,right,1,0.9237660000217147,,,,,,,fouad,2023-07-16_15h05.07.441,Rewa's Exp,2023.1.2,60.019290207014336,
Countdown_2.5s.mp4,red,green,right,Countdown_2.5s.jpg,6,0,6,0,,,,,,,,,0,1,1,0,,,,651.5085575999692,652.5924138999544,1.0838562999852002,,,,50,,,,,right,1,1.0505929000210017,,,,,,,fouad,2023-07-16_15h05.07.441,Rewa's Exp,2023.1.2,60.019290207014336,
Countdown_1.5s.mp4,red,green,right,Countdown_1.5s.jpg,6,0,6,0,,,,,,,,,0,2,2,2,,,,656.5219472999452,657.9755612000008,1.4536139000556432,,,,51,,,,,right,1,1.4219122999929823,,,,,,,fouad,2023-07-16_15h05.07.441,Rewa's Exp,2023.1.2,60.019290207014336,
Countdown_2.5s.mp4,green,red,left,Countdown_2.5s.jpg,6,0,6,0,,,,,,,,,0,3,3,4,,,,661.8782726999489,663.1422137999907,1.2639411000418477,,,,49,,,,,right,0,1.2412936000037007,,,,,,,fouad,2023-07-16_15h05.07.441,Rewa's Exp,2023.1.2,60.019290207014336,
Countdown_2s.mp4,green,red,left,Countdown_2s.jpg,6,0,6,0,,,,,,,,,0,4,4,5,,,,667.0750734999892,667.8923178999685,0.8172443999792449,,,,50,,,,,left,1,0.7883710999740288,,,,,,,fouad,2023-07-16_15h05.07.441,Rewa's Exp,2023.1.2,60.019290207014336,
Countdown_1.5s.mp4,green,red,left,Countdown_1.5s.jpg,6,0,6,0,,,,,,,,,0,5,5,3,,,,671.7981437999988,672.3756541999755,0.5775103999767452,,,,48,,,,,right,0,0.5449649000074714,,,,,,,fouad,2023-07-16_15h05.07.441,Rewa's Exp,2023.1.2,60.019290207014336,
,,,,,6,0,6,0,,,,,,,,,,,,,,,,,,,,,,,,,,,,,,678.9012815000024,678.9012815000024,678.9012815000024,679.900720100035,space,2.4880329000297934,fouad,2023-07-16_15h05.07.441,Rewa's Exp,2023.1.2,60.019290207014336,
Countdown_1.5s.mp4,red,green,right,Countdown_1.5s.jpg,7,0,7,0,0,0,0,2,,,,,,,,,,,,678.8157032999443,679.3590455999947,0.5433423000504263,right,1,0.5196144999936223,49,,,,,,,,,,,,,,fouad,2023-07-16_15h05.07.441,Rewa's Exp,2023.1.2,60.019290207014336,
Countdown_2s.mp4,red,green,right,Countdown_2s.jpg,7,0,7,0,0,1,1,1,,,,,,,,,,,,683.2911542999791,683.9757839999511,0.6846296999719925,left,0,0.6611086000339128,47,,,,,,,,,,,,,,fouad,2023-07-16_15h05.07.441,Rewa's Exp,2023.1.2,60.019290207014336,
Countdown_2.5s.mp4,red,green,right,Countdown_2.5s.jpg,7,0,7,0,0,2,2,0,,,,,,,,,,,,687.8895962999668,688.7091114999494,0.8195151999825612,right,1,0.7976470000576228,48,,,,,,,,,,,,,,fouad,2023-07-16_15h05.07.441,Rewa's Exp,2023.1.2,60.019290207014336,
Countdown_1.5s.mp4,green,red,left,Countdown_1.5s.jpg,7,0,7,0,0,3,3,3,,,,,,,,,,,,692.6044226999511,693.4591847999836,0.8547621000325307,left,1,0.8361276999930851,49,,,,,,,,,,,,,,fouad,2023-07-16_15h05.07.441,Rewa's Exp,2023.1.2,60.019290207014336,
Countdown_2.5s.mp4,green,red,left,Countdown_2.5s.jpg,7,0,7,0,0,4,4,4,,,,,,,,,,,,697.3590394999483,698.09266689996,0.7336274000117555,left,1,0.7047288000467233,50,,,,,,,,,,,,,,fouad,2023-07-16_15h05.07.441,Rewa's Exp,2023.1.2,60.019290207014336,
Countdown_2s.mp4,green,red,left,Countdown_2s.jpg,7,0,7,0,0,5,5,5,,,,,,,,,,,,701.9921866999939,702.6264063999988,0.6342197000049055,right,0,0.6156914999592118,48,,,,,,,,,,,,,,fouad,2023-07-16_15h05.07.441,Rewa's Exp,2023.1.2,60.019290207014336,
Countdown_2s.mp4,red,green,right,Countdown_2s.jpg,7,0,7,0,,,,,0,0,0,1,,,,,,,,706.5947421999881,707.5922007999616,0.99745859997347,,,,49,711.9923845999874,right,1,0.9810814000084065,,,,,,,,,,fouad,2023-07-16_15h05.07.441,Rewa's Exp,2023.1.2,60.019290207014336,
Countdown_1.5s.mp4,green,red,left,Countdown_1.5s.jpg,7,0,7,0,,,,,0,1,1,3,,,,,,,,711.5166327999905,712.7095085999463,1.1928757999558002,,,,47,716.9142987999949,right,0,1.1711875000037253,,,,,,,,,,fouad,2023-07-16_15h05.07.441,Rewa's Exp,2023.1.2,60.019290207014336,
Countdown_2s.mp4,green,red,left,Countdown_2s.jpg,7,0,7,0,,,,,0,2,2,5,,,,,,,,716.6400776999653,717.7090843999758,1.0690067000105046,,,,48,722.0376569000073,left,1,1.0479109000298195,,,,,,,,,,fouad,2023-07-16_15h05.07.441,Rewa's Exp,2023.1.2,60.019290207014336,
Countdown_1.5s.mp4,red,green,right,Countdown_1.5s.jpg,7,0,7,0,,,,,0,3,3,2,,,,,,,,721.6367246999871,722.6091550999554,0.9724303999682888,,,,49,727.0343312000041,right,1,0.9548315000138246,,,,,,,,,,fouad,2023-07-16_15h05.07.441,Rewa's Exp,2023.1.2,60.019290207014336,
Countdown_2.5s.mp4,green,red,left,Countdown_2.5s.jpg,7,0,7,0,,,,,0,4,4,4,,,,,,,,726.5577557999641,727.5425827999716,0.984827000007499,,,,47,731.9553629999864,right,0,0.9616110000060871,,,,,,,,,,fouad,2023-07-16_15h05.07.441,Rewa's Exp,2023.1.2,60.019290207014336,
Countdown_2.5s.mp4,red,green,right,Countdown_2.5s.jpg,7,0,7,0,,,,,0,5,5,0,,,,,,,,731.4374740999774,732.5423293999629,1.104855299985502,,,,48,736.8350698000286,right,1,1.0823839000076987,,,,,,,,,,fouad,2023-07-16_15h05.07.441,Rewa's Exp,2023.1.2,60.019290207014336,
Countdown_1.5s.mp4,green,red,left,Countdown_1.5s.jpg,7,0,7,0,,,,,,,,,0,0,0,3,,,,736.4779402999557,737.5258428999805,1.0479026000248268,,,,46,,,,,right,0,1.016694300051313,,,,,,,fouad,2023-07-16_15h05.07.441,Rewa's Exp,2023.1.2,60.019290207014336,
Countdown_2s.mp4,red,green,right,Countdown_2s.jpg,7,0,7,0,,,,,,,,,0,1,1,1,,,,741.4755555999582,742.2266603999888,0.7511048000305891,,,,47,,,,,right,1,0.7317671000491828,,,,,,,fouad,2023-07-16_15h05.07.441,Rewa's Exp,2023.1.2,60.019290207014336,
Countdown_1.5s.mp4,red,green,right,Countdown_1.5s.jpg,7,0,7,0,,,,,,,,,0,2,2,2,,,,746.1497549999622,747.0596156999818,0.9098607000196353,,,,48,,,,,right,1,0.8895369999809191,,,,,,,fouad,2023-07-16_15h05.07.441,Rewa's Exp,2023.1.2,60.019290207014336,
Countdown_2s.mp4,green,red,left,Countdown_2s.jpg,7,0,7,0,,,,,,,,,0,3,3,5,,,,750.9989518999937,751.9259604999679,0.927008599974215,,,,49,,,,,left,1,0.8961962999892421,,,,,,,fouad,2023-07-16_15h05.07.441,Rewa's Exp,2023.1.2,60.019290207014336,
Countdown_2.5s.mp4,green,red,left,Countdown_2.5s.jpg,7,0,7,0,,,,,,,,,0,4,4,4,,,,755.8384162999573,756.6926304999506,0.8542141999932937,,,,50,,,,,left,1,0.8337801999878138,,,,,,,fouad,2023-07-16_15h05.07.441,Rewa's Exp,2023.1.2,60.019290207014336,
Countdown_2.5s.mp4,red,green,right,Countdown_2.5s.jpg,7,0,7,0,,,,,,,,,0,5,5,0,,,,760.6129182999721,761.2758914000005,0.6629731000284664,,,,51,,,,,right,1,0.642156400019303,,,,,,,fouad,2023-07-16_15h05.07.441,Rewa's Exp,2023.1.2,60.019290207014336,
,,,,,7,0,7,0,,,,,,,,,,,,,,,,,,,,,,,,,,,,,,767.7843411000213,767.7843411000213,767.7843411000213,768.784055199998,space,1.5321649999823421,fouad,2023-07-16_15h05.07.441,Rewa's Exp,2023.1.2,60.019290207014336,
Countdown_1.5s.mp4,red,green,right,Countdown_1.5s.jpg,8,0,8,0,0,0,0,2,,,,,,,,,,,,766.7422664999613,767.3259444999858,0.5836780000245199,right,1,0.562131299986504,52,,,,,,,,,,,,,,fouad,2023-07-16_15h05.07.441,Rewa's Exp,2023.1.2,60.019290207014336,
Countdown_2.5s.mp4,red,green,right,Countdown_2.5s.jpg,8,0,8,0,0,1,1,0,,,,,,,,,,,,771.2209624999668,771.9596181999659,0.7386556999990717,right,1,0.7150091999792494,53,,,,,,,,,,,,,,fouad,2023-07-16_15h05.07.441,Rewa's Exp,2023.1.2,60.019290207014336,
Countdown_2.5s.mp4,green,red,left,Countdown_2.5s.jpg,8,0,8,0,0,2,2,4,,,,,,,,,,,,775.8700469999458,776.6597719999845,0.789725000038743,left,1,0.7616695000324398,54,,,,,,,,,,,,,,fouad,2023-07-16_15h05.07.441,Rewa's Exp,2023.1.2,60.019290207014336,
Countdown_1.5s.mp4,green,red,left,Countdown_1.5s.jpg,8,0,8,0,0,3,3,3,,,,,,,,,,,,780.5971114999847,781.5593379999627,0.9622264999779873,left,1,0.9388247999595478,55,,,,,,,,,,,,,,fouad,2023-07-16_15h05.07.441,Rewa's Exp,2023.1.2,60.019290207014336,
Countdown_2s.mp4,red,green,right,Countdown_2s.jpg,8,0,8,0,0,4,4,1,,,,,,,,,,,,785.4626904999604,786.1925958999782,0.7299054000177421,right,1,0.7134843000094406,56,,,,,,,,,,,,,,fouad,2023-07-16_15h05.07.441,Rewa's Exp,2023.1.2,60.019290207014336,
Countdown_2s.mp4,green,red,left,Countdown_2s.jpg,8,0,8,0,0,5,5,5,,,,,,,,,,,,790.1323934999527,791.3926708999788,1.260277400026098,left,1,1.2281946000293829,57,,,,,,,,,,,,,,fouad,2023-07-16_15h05.07.441,Rewa's Exp,2023.1.2,60.019290207014336,
Countdown_2s.mp4,green,red,left,Countdown_2s.jpg,8,0,8,0,,,,,0,0,0,5,,,,,,,,795.3283795999596,796.5599265999626,1.2315470000030473,,,,58,800.7260077000246,left,1,1.1989962999941781,,,,,,,,,,fouad,2023-07-16_15h05.07.441,Rewa's Exp,2023.1.2,60.019290207014336,
Countdown_2s.mp4,red,green,right,Countdown_2s.jpg,8,0,8,0,,,,,0,1,1,1,,,,,,,,800.4882073999615,801.3259703999502,0.8377629999886267,,,,59,805.8850765000097,right,1,0.8088283000397496,,,,,,,,,,fouad,2023-07-16_15h05.07.441,Rewa's Exp,2023.1.2,60.019290207014336,
Countdown_2.5s.mp4,green,red,left,Countdown_2.5s.jpg,8,0,8,0,,,,,0,2,2,4,,,,,,,,805.2417388999602,806.2592678999645,1.0175290000042878,,,,60,810.6393209000234,left,1,0.9898230000399053,,,,,,,,,,fouad,2023-07-16_15h05.07.441,Rewa's Exp,2023.1.2,60.019290207014336,
Countdown_1.5s.mp4,red,green,right,Countdown_1.5s.jpg,8,0,8,0,,,,,0,3,3,2,,,,,,,,810.1565685999813,810.9427229999565,0.786154399975203,,,,61,815.5542401000275,right,1,0.7547186000156216,,,,,,,,,,fouad,2023-07-16_15h05.07.441,Rewa's Exp,2023.1.2,60.019290207014336,
Countdown_1.5s.mp4,green,red,left,Countdown_1.5s.jpg,8,0,8,0,,,,,0,4,4,3,,,,,,,,814.883932799974,816.0258756999974,1.1419429000234231,,,,62,820.2814657000126,left,1,1.12461150001036,,,,,,,,,,fouad,2023-07-16_15h05.07.441,Rewa's Exp,2023.1.2,60.019290207014336,
Countdown_2.5s.mp4,red,green,right,Countdown_2.5s.jpg,8,0,8,0,,,,,0,5,5,0,,,,,,,,819.9380694999709,820.6425597999478,0.7044902999768965,,,,60,825.3356799000176,left,0,0.6768742999993265,,,,,,,,,,fouad,2023-07-16_15h05.07.441,Rewa's Exp,2023.1.2,60.019290207014336,
Countdown_2s.mp4,green,red,left,Countdown_2s.jpg,8,0,8,0,,,,,,,,,0,0,0,5,,,,824.5578238999587,825.97594199999,1.418118100031279,,,,61,,,,,left,1,1.3946772000053898,,,,,,,fouad,2023-07-16_15h05.07.441,Rewa's Exp,2023.1.2,60.019290207014336,
Countdown_1.5s.mp4,red,green,right,Countdown_1.5s.jpg,8,0,8,0,,,,,,,,,0,1,1,2,,,,829.8665553999599,831.0594834999647,1.1929281000047922,,,,62,,,,,right,1,1.1644939999678172,,,,,,,fouad,2023-07-16_15h05.07.441,Rewa's Exp,2023.1.2,60.019290207014336,
Countdown_2s.mp4,red,green,right,Countdown_2s.jpg,8,0,8,0,,,,,,,,,0,2,2,1,,,,835.0253210999654,836.0757719999528,1.0504508999874815,,,,63,,,,,right,1,1.0303029000060633,,,,,,,fouad,2023-07-16_15h05.07.441,Rewa's Exp,2023.1.2,60.019290207014336,
Countdown_1.5s.mp4,green,red,left,Countdown_1.5s.jpg,8,0,8,0,,,,,,,,,0,3,3,3,,,,840.0179566000006,840.8099554999499,0.7919988999492489,,,,64,,,,,left,1,0.766072999977041,,,,,,,fouad,2023-07-16_15h05.07.441,Rewa's Exp,2023.1.2,60.019290207014336,
Countdown_2.5s.mp4,green,red,left,Countdown_2.5s.jpg,8,0,8,0,,,,,,,,,0,4,4,4,,,,844.790809499973,845.8093679999583,1.0185584999853745,,,,62,,,,,right,0,1.0006567999953404,,,,,,,fouad,2023-07-16_15h05.07.441,Rewa's Exp,2023.1.2,60.019290207014336,
Countdown_2.5s.mp4,red,green,right,Countdown_2.5s.jpg,8,0,8,0,,,,,,,,,0,5,5,0,,,,849.701336099999,850.5091918999678,0.8078557999688201,,,,63,,,,,right,1,0.786559899977874,,,,,,,fouad,2023-07-16_15h05.07.441,Rewa's Exp,2023.1.2,60.019290207014336,
,,,,,8,0,8,0,,,,,,,,,,,,,,,,,,,,,,,,,,,,,,857.0511893000221,857.0511893000221,857.0511893000221,858.0510839000344,space,1.75349010003265,fouad,2023-07-16_15h05.07.441,Rewa's Exp,2023.1.2,60.019290207014336,
Countdown_2.5s.mp4,red,green,right,Countdown_2.5s.jpg,9,0,9,0,0,0,0,0,,,,,,,,,,,,856.2543085999787,857.4430527999648,1.188744199986104,right,1,1.170675500005018,64,,,,,,,,,,,,,,fouad,2023-07-16_15h05.07.441,Rewa's Exp,2023.1.2,60.019290207014336,
Countdown_2s.mp4,green,red,left,Countdown_2s.jpg,9,0,9,0,0,1,1,5,,,,,,,,,,,,861.3742042999947,862.1426564999856,0.7684521999908611,left,1,0.746171900012996,65,,,,,,,,,,,,,,fouad,2023-07-16_15h05.07.441,Rewa's Exp,2023.1.2,60.019290207014336,
Countdown_1.5s.mp4,red,green,right,Countdown_1.5s.jpg,9,0,9,0,0,2,2,2,,,,,,,,,,,,866.0975006999797,866.6760513999616,0.5785506999818608,right,1,0.5511112000094727,66,,,,,,,,,,,,,,fouad,2023-07-16_15h05.07.441,Rewa's Exp,2023.1.2,60.019290207014336,
Countdown_1.5s.mp4,green,red,left,Countdown_1.5s.jpg,9,0,9,0,0,3,3,3,,,,,,,,,,,,870.563618599961,871.4928191999788,0.9292006000177935,left,1,0.899439100001473,67,,,,,,,,,,,,,,fouad,2023-07-16_15h05.07.441,Rewa's Exp,2023.1.2,60.019290207014336,
Countdown_2.5s.mp4,green,red,left,Countdown_2.5s.jpg,9,0,9,0,0,4,4,4,,,,,,,,,,,,875.4311945999507,876.1927271999884,0.7615326000377536,left,1,0.7371257999911904,68,,,,,,,,,,,,,,fouad,2023-07-16_15h05.07.441,Rewa's Exp,2023.1.2,60.019290207014336,
Countdown_2s.mp4,red,green,right,Countdown_2s.jpg,9,0,9,0,0,5,5,1,,,,,,,,,,,,880.1105145999463,880.6759880999452,0.5654734999989159,right,1,0.545535400044173,69,,,,,,,,,,,,,,fouad,2023-07-16_15h05.07.441,Rewa's Exp,2023.1.2,60.019290207014336,
Countdown_2s.mp4,red,green,right,Countdown_2s.jpg,9,0,9,0,,,,,0,0,0,1,,,,,,,,884.5809354999801,885.3927209999529,0.811785499972757,,,,70,889.9784599000122,right,1,0.7878648999612778,,,,,,,,,,fouad,2023-07-16_15h05.07.441,Rewa's Exp,2023.1.2,60.019290207014336,
Countdown_1.5s.mp4,red,green,right,Countdown_1.5s.jpg,9,0,9,0,,,,,0,1,1,2,,,,,,,,889.3513554999954,889.943458499969,0.5921029999735765,,,,71,894.7489550000173,right,1,0.5602350999834016,,,,,,,,,,fouad,2023-07-16_15h05.07.441,Rewa's Exp,2023.1.2,60.019290207014336,
Countdown_2s.mp4,green,red,left,Countdown_2s.jpg,9,0,9,0,,,,,0,2,2,5,,,,,,,,893.8756968999514,894.5943315999466,0.7186346999951638,,,,72,899.2732211000402,left,1,0.7002172999782488,,,,,,,,,,fouad,2023-07-16_15h05.07.441,Rewa's Exp,2023.1.2,60.019290207014336,
Countdown_2.5s.mp4,green,red,left,Countdown_2.5s.jpg,9,0,9,0,,,,,0,3,3,4,,,,,,,,898.5133849999984,899.3762086999486,0.8628236999502406,,,,73,903.9109412999824,left,1,0.8382623999495991,,,,,,,,,,fouad,2023-07-16_15h05.07.441,Rewa's Exp,2023.1.2,60.019290207014336,
Countdown_2.5s.mp4,red,green,right,Countdown_2.5s.jpg,9,0,9,0,,,,,0,4,4,0,,,,,,,,903.2678167999838,903.8761917999946,0.6083750000107102,,,,74,908.6652816000278,right,1,0.5794761999859475,,,,,,,,,,fouad,2023-07-16_15h05.07.441,Rewa's Exp,2023.1.2,60.019290207014336,
Countdown_1.5s.mp4,green,red,left,Countdown_1.5s.jpg,9,0,9,0,,,,,0,5,5,3,,,,,,,,907.7928036999656,908.7927601999836,0.9999565000180155,,,,75,913.1904547000304,left,1,0.9753461999935098,,,,,,,,,,fouad,2023-07-16_15h05.07.441,Rewa's Exp,2023.1.2,60.019290207014336,
Countdown_2s.mp4,green,red,left,Countdown_2s.jpg,9,0,9,0,,,,,,,,,0,0,0,5,,,,912.739885899995,913.893205499975,1.1533195999800228,,,,76,,,,,left,1,1.1318522000219673,,,,,,,fouad,2023-07-16_15h05.07.441,Rewa's Exp,2023.1.2,60.019290207014336,
Countdown_2.5s.mp4,red,green,right,Countdown_2.5s.jpg,9,0,9,0,,,,,,,,,0,1,1,0,,,,917.8216984999599,918.509434699954,0.6877361999941058,,,,77,,,,,right,1,0.6660335000487976,,,,,,,fouad,2023-07-16_15h05.07.441,Rewa's Exp,2023.1.2,60.019290207014336,
Countdown_2.5s.mp4,green,red,left,Countdown_2.5s.jpg,9,0,9,0,,,,,,,,,0,2,2,4,,,,922.4191804999718,923.093299399945,0.6741188999731094,,,,78,,,,,left,1,0.6540755000314675,,,,,,,fouad,2023-07-16_15h05.07.441,Rewa's Exp,2023.1.2,60.019290207014336,
Countdown_1.5s.mp4,green,red,left,Countdown_1.5s.jpg,9,0,9,0,,,,,,,,,0,3,3,3,,,,927.0681391999824,927.8262256999733,0.7580864999908954,,,,76,,,,,right,0,0.732244799961336,,,,,,,fouad,2023-07-16_15h05.07.441,Rewa's Exp,2023.1.2,60.019290207014336,
Countdown_2s.mp4,red,green,right,Countdown_2s.jpg,9,0,9,0,,,,,,,,,0,4,4,1,,,,931.7480532999616,932.6262952999678,0.8782420000061393,,,,77,,,,,right,1,0.8593454000074416,,,,,,,fouad,2023-07-16_15h05.07.441,Rewa's Exp,2023.1.2,60.019290207014336,
Countdown_1.5s.mp4,red,green,right,Countdown_1.5s.jpg,9,0,9,0,,,,,,,,,0,5,5,2,,,,936.5531498999917,937.3762957999716,0.8231458999798633,,,,78,,,,,right,1,0.7905734000378288,,,,,,,fouad,2023-07-16_15h05.07.441,Rewa's Exp,2023.1.2,60.019290207014336,
,,,,,9,0,9,0,,,,,,,,,,,,,,,,,,,,,,,,,,,,,,943.9013860999839,943.9013860999839,943.9013860999839,944.9013810000033,space,1.6719178999774158,fouad,2023-07-16_15h05.07.441,Rewa's Exp,2023.1.2,60.019290207014336,
Countdown_2s.mp4,green,red,left,Countdown_2s.jpg,10,0,10,0,0,0,0,5,,,,,,,,,,,,943.0138430999941,943.7928779999493,0.7790348999551497,left,1,0.7624236000119708,79,,,,,,,,,,,,,,fouad,2023-07-16_15h05.07.441,Rewa's Exp,2023.1.2,60.019290207014336,
Countdown_2.5s.mp4,green,red,left,Countdown_2.5s.jpg,10,0,10,0,0,1,1,4,,,,,,,,,,,,947.6727256999584,948.5932218999951,0.9204962000367232,left,1,0.894808400014881,80,,,,,,,,,,,,,,fouad,2023-07-16_15h05.07.441,Rewa's Exp,2023.1.2,60.019290207014336,
Countdown_2s.mp4,red,green,right,Countdown_2s.jpg,10,0,10,0,0,2,2,1,,,,,,,,,,,,952.5152246999787,953.1929862999823,0.6777616000035778,right,1,0.6535849999636412,81,,,,,,,,,,,,,,fouad,2023-07-16_15h05.07.441,Rewa's Exp,2023.1.2,60.019290207014336,
Countdown_1.5s.mp4,red,green,right,Countdown_1.5s.jpg,10,0,10,0,0,3,3,2,,,,,,,,,,,,957.1441482999944,958.0437763999798,0.8996280999854207,right,1,0.8728806999861263,82,,,,,,,,,,,,,,fouad,2023-07-16_15h05.07.441,Rewa's Exp,2023.1.2,60.019290207014336,
Countdown_2.5s.mp4,red,green,right,Countdown_2.5s.jpg,10,0,10,0,0,4,4,0,,,,,,,,,,,,961.9587668000022,962.9427518000011,0.9839849999989383,right,1,0.9530048999586143,83,,,,,,,,,,,,,,fouad,2023-07-16_15h05.07.441,Rewa's Exp,2023.1.2,60.019290207014336,
Countdown_1.5s.mp4,green,red,left,Countdown_1.5s.jpg,10,0,10,0,0,5,5,3,,,,,,,,,,,,966.8394717999618,967.5603832999477,0.7209114999859594,left,1,0.687411799968686,84,,,,,,,,,,,,,,fouad,2023-07-16_15h05.07.441,Rewa's Exp,2023.1.2,60.019290207014336,
Countdown_1.5s.mp4,green,red,left,Countdown_1.5s.jpg,10,0,10,0,,,,,0,0,0,3,,,,,,,,971.5092086999794,972.4095825999975,0.9003739000181668,,,,85,976.9068407000159,left,1,0.8831104999990202,,,,,,,,,,fouad,2023-07-16_15h05.07.441,Rewa's Exp,2023.1.2,60.019290207014336,
Countdown_1.5s.mp4,red,green,right,Countdown_1.5s.jpg,10,0,10,0,,,,,0,1,1,2,,,,,,,,976.3034520999645,977.1097977999598,0.8063456999952905,,,,83,981.701088700036,left,0,0.7754106000065804,,,,,,,,,,fouad,2023-07-16_15h05.07.441,Rewa's Exp,2023.1.2,60.019290207014336,
Countdown_2.5s.mp4,red,green,right,Countdown_2.5s.jpg,10,0,10,0,,,,,0,2,2,0,,,,,,,,981.0334395999671,981.9598066999461,0.926367099978961,,,,84,986.4303931000177,right,1,0.9033410000265576,,,,,,,,,,fouad,2023-07-16_15h05.07.441,Rewa's Exp,2023.1.2,60.019290207014336,
Countdown_2.5s.mp4,green,red,left,Countdown_2.5s.jpg,10,0,10,0,,,,,0,3,3,4,,,,,,,,985.8629641999723,986.826425199979,0.9634610000066459,,,,82,991.2605883000069,right,0,0.9375314000062644,,,,,,,,,,fouad,2023-07-16_15h05.07.441,Rewa's Exp,2023.1.2,60.019290207014336,
Countdown_2s.mp4,green,red,left,Countdown_2s.jpg,10,0,10,0,,,,,0,4,4,5,,,,,,,,990.7309827999561,991.3264393999707,0.595456600014586,,,,83,996.1285710000084,left,1,0.5720759000396356,,,,,,,,,,fouad,2023-07-16_15h05.07.441,Rewa's Exp,2023.1.2,60.019290207014336,
Countdown_2s.mp4,red,green,right,Countdown_2s.jpg,10,0,10,0,,,,,0,5,5,1,,,,,,,,995.2875187999452,996.4263264999609,1.1388077000156045,,,,84,1000.6850517999846,right,1,1.1124814000213519,,,,,,,,,,fouad,2023-07-16_15h05.07.441,Rewa's Exp,2023.1.2,60.019290207014336,
Countdown_2.5s.mp4,red,green,right,Countdown_2.5s.jpg,10,0,10,0,,,,,,,,,0,0,0,0,,,,1000.3430376999895,1001.2936510999571,0.9506133999675512,,,,85,,,,,right,1,0.9201394999981858,,,,,,,fouad,2023-07-16_15h05.07.441,Rewa's Exp,2023.1.2,60.019290207014336,
Countdown_2.5s.mp4,green,red,left,Countdown_2.5s.jpg,10,0,10,0,,,,,,,,,0,1,1,4,,,,1005.2182297999971,1006.2932831999497,1.0750533999525942,,,,83,,,,,right,0,1.0533585000084713,,,,,,,fouad,2023-07-16_15h05.07.441,Rewa's Exp,2023.1.2,60.019290207014336,
Countdown_1.5s.mp4,green,red,left,Countdown_1.5s.jpg,10,0,10,0,,,,,,,,,0,2,2,3,,,,1010.2454922999605,1011.4429391999729,1.1974469000124373,,,,84,,,,,left,1,1.1795566999935545,,,,,,,fouad,2023-07-16_15h05.07.441,Rewa's Exp,2023.1.2,60.019290207014336,
Countdown_2s.mp4,green,red,left,Countdown_2s.jpg,10,0,10,0,,,,,,,,,0,3,3,5,,,,1015.3705523999524,1016.209679499967,0.8391271000145935,,,,85,,,,,left,1,0.8139331999700516,,,,,,,fouad,2023-07-16_15h05.07.441,Rewa's Exp,2023.1.2,60.019290207014336,
Countdown_2s.mp4,red,green,right,Countdown_2s.jpg,10,0,10,0,,,,,,,,,0,4,4,1,,,,1020.1304035999929,1021.160471399955,1.0300677999621257,,,,83,,,,,left,0,0.9974916999926791,,,,,,,fouad,2023-07-16_15h05.07.441,Rewa's Exp,2023.1.2,60.019290207014336,
Countdown_1.5s.mp4,red,green,right,Countdown_1.5s.jpg,10,0,10,0,,,,,,,,,0,5,5,2,,,,1025.0949834999628,1025.6763990999898,0.5814156000269577,,,,84,,,,,right,1,0.5609201000188477,,,,,,,fouad,2023-07-16_15h05.07.441,Rewa's Exp,2023.1.2,60.019290207014336,
,,,,,10,0,10,0,,,,,,,,,,,,,,,,,,,,,,,,,,,,,,1032.201453400019,1032.201453400019,1032.201453400019,1033.2014755000127,space,1.9399806000292301,fouad,2023-07-16_15h05.07.441,Rewa's Exp,2023.1.2,60.019290207014336,
Countdown_2.5s.mp4,green,red,left,Countdown_2.5s.jpg,11,0,11,0,0,0,0,4,,,,,,,,,,,,1031.5833661999786,1032.3598534999765,0.7764872999978252,left,1,0.7440196000388823,85,,,,,,,,,,,,,,fouad,2023-07-16_15h05.07.441,Rewa's Exp,2023.1.2,60.019290207014336,
Countdown_2.5s.mp4,red,green,right,Countdown_2.5s.jpg,11,0,11,0,0,1,1,0,,,,,,,,,,,,1036.2584715999546,1037.4430199999479,1.1845483999932185,right,1,1.1665559000102803,86,,,,,,,,,,,,,,fouad,2023-07-16_15h05.07.441,Rewa's Exp,2023.1.2,60.019290207014336,
Countdown_2s.mp4,red,green,right,Countdown_2s.jpg,11,0,11,0,0,2,2,1,,,,,,,,,,,,1041.3454636999522,1042.3432406999636,0.9977770000114106,right,1,0.9660382000147365,87,,,,,,,,,,,,,,fouad,2023-07-16_15h05.07.441,Rewa's Exp,2023.1.2,60.019290207014336,
Countdown_1.5s.mp4,green,red,left,Countdown_1.5s.jpg,11,0,11,0,0,3,3,3,,,,,,,,,,,,1046.2697812999832,1047.2012251999695,0.9314438999863341,left,1,0.9065807000151835,88,,,,,,,,,,,,,,fouad,2023-07-16_15h05.07.441,Rewa's Exp,2023.1.2,60.019290207014336,
Countdown_1.5s.mp4,red,green,right,Countdown_1.5s.jpg,11,0,11,0,0,4,4,2,,,,,,,,,,,,1051.139143199951,1051.9098404999822,0.7706973000313155,right,1,0.7410211999667808,89,,,,,,,,,,,,,,fouad,2023-07-16_15h05.07.441,Rewa's Exp,2023.1.2,60.019290207014336,
Countdown_2s.mp4,green,red,left,Countdown_2s.jpg,11,0,11,0,0,5,5,5,,,,,,,,,,,,1055.811035199964,1056.560295399977,0.7492602000129409,left,1,0.7257298000040464,90,,,,,,,,,,,,,,fouad,2023-07-16_15h05.07.441,Rewa's Exp,2023.1.2,60.019290207014336,
Countdown_1.5s.mp4,red,green,right,Countdown_1.5s.jpg,11,0,11,0,,,,,0,0,0,2,,,,,,,,1060.523645899957,1061.9431851999834,1.419539300026372,,,,91,1065.9212793000042,right,1,1.3880783000495285,,,,,,,,,,fouad,2023-07-16_15h05.07.441,Rewa's Exp,2023.1.2,60.019290207014336,
Countdown_1.5s.mp4,green,red,left,Countdown_1.5s.jpg,11,0,11,0,,,,,0,1,1,3,,,,,,,,1065.836754799995,1066.643344399985,0.8065895999898203,,,,92,1071.2343107000343,left,1,0.7793424999690615,,,,,,,,,,fouad,2023-07-16_15h05.07.441,Rewa's Exp,2023.1.2,60.019290207014336,
Countdown_2s.mp4,red,green,right,Countdown_2s.jpg,11,0,11,0,,,,,0,2,2,1,,,,,,,,1070.5598348999629,1071.5267580999644,0.9669232000014745,,,,93,1075.9574490000377,right,1,0.9358228999772109,,,,,,,,,,fouad,2023-07-16_15h05.07.441,Rewa's Exp,2023.1.2,60.019290207014336,
Countdown_2.5s.mp4,red,green,right,Countdown_2.5s.jpg,11,0,11,0,,,,,0,3,3,0,,,,,,,,1075.4746754999505,1077.357421499968,1.8827460000175051,,,,94,1080.8722057000268,right,1,1.8413460000301711,,,,,,,,,,fouad,2023-07-16_15h05.07.441,Rewa's Exp,2023.1.2,60.019290207014336,
Countdown_2.5s.mp4,green,red,left,Countdown_2.5s.jpg,11,0,11,0,,,,,0,4,4,4,,,,,,,,1081.304178499966,1083.5438904999755,2.239712000009604,,,,95,1086.701719900011,left,1,2.2163639000500552,,,,,,,,,,fouad,2023-07-16_15h05.07.441,Rewa's Exp,2023.1.2,60.019290207014336,
Countdown_2s.mp4,green,red,left,Countdown_2s.jpg,11,0,11,0,,,,,0,5,5,5,,,,,,,,1087.46331859997,1088.4765647999593,1.0132461999892257,,,,96,1092.860936800018,left,1,0.9846753000165336,,,,,,,,,,fouad,2023-07-16_15h05.07.441,Rewa's Exp,2023.1.2,60.019290207014336,
Countdown_2s.mp4,red,green,right,Countdown_2s.jpg,11,0,11,0,,,,,,,,,0,0,0,1,,,,1092.399179,1093.1267171999789,0.7275381999788806,,,,97,,,,,right,1,0.7048254999681376,,,,,,,fouad,2023-07-16_15h05.07.441,Rewa's Exp,2023.1.2,60.019290207014336,
Countdown_2s.mp4,green,red,left,Countdown_2s.jpg,11,0,11,0,,,,,,,,,0,1,1,5,,,,1097.082100300002,1098.2929951999686,1.2108948999666609,,,,98,,,,,left,1,1.1825307999970391,,,,,,,fouad,2023-07-16_15h05.07.441,Rewa's Exp,2023.1.2,60.019290207014336,
Countdown_2.5s.mp4,green,red,left,Countdown_2.5s.jpg,11,0,11,0,,,,,,,,,0,2,2,4,,,,1102.242701799958,1102.9939202999813,0.7512185000232421,,,,96,,,,,right,0,0.73309860000154,,,,,,,fouad,2023-07-16_15h05.07.441,Rewa's Exp,2023.1.2,60.019290207014336,
Countdown_2.5s.mp4,red,green,right,Countdown_2.5s.jpg,11,0,11,0,,,,,,,,,0,3,3,0,,,,1106.9460453999927,1108.3597341999994,1.4136888000066392,,,,97,,,,,right,1,1.3810998999979347,,,,,,,fouad,2023-07-16_15h05.07.441,Rewa's Exp,2023.1.2,60.019290207014336,
Countdown_1.5s.mp4,red,green,right,Countdown_1.5s.jpg,11,0,11,0,,,,,,,,,0,4,4,2,,,,1112.2613248999696,1113.759860799997,1.4985359000274912,,,,95,,,,,left,0,1.4825458999839611,,,,,,,fouad,2023-07-16_15h05.07.441,Rewa's Exp,2023.1.2,60.019290207014336,
Countdown_1.5s.mp4,green,red,left,Countdown_1.5s.jpg,11,0,11,0,,,,,,,,,0,5,5,3,,,,1117.6577310999855,1118.7930383999483,1.135307299962733,,,,93,,,,,right,0,1.118017399974633,,,,,,,fouad,2023-07-16_15h05.07.441,Rewa's Exp,2023.1.2,60.019290207014336,
,,,,,11,0,11,0,,,,,,,,,,,,,,,,,,,,,,,,,,,,,,1125.3183459999855,1125.3183459999855,1125.3183459999855,1126.3183034000103,space,1.8310667999903671,fouad,2023-07-16_15h05.07.441,Rewa's Exp,2023.1.2,60.019290207014336,
Countdown_1.5s.mp4,green,red,left,Countdown_1.5s.jpg,12,0,12,0,0,0,0,3,,,,,,,,,,,,1124.543577399978,1125.393332299951,0.8497548999730498,left,1,0.8170435999636538,94,,,,,,,,,,,,,,fouad,2023-07-16_15h05.07.441,Rewa's Exp,2023.1.2,60.019290207014336,
Countdown_2.5s.mp4,red,green,right,Countdown_2.5s.jpg,12,0,12,0,0,1,1,0,,,,,,,,,,,,1129.3474307999713,1130.193048999994,0.8456182000227273,right,1,0.8295280000311323,95,,,,,,,,,,,,,,fouad,2023-07-16_15h05.07.441,Rewa's Exp,2023.1.2,60.019290207014336,
Countdown_2.5s.mp4,green,red,left,Countdown_2.5s.jpg,12,0,12,0,0,2,2,4,,,,,,,,,,,,1134.1041337999632,1134.866709999973,0.7625762000097893,left,1,0.7355224999482743,96,,,,,,,,,,,,,,fouad,2023-07-16_15h05.07.441,Rewa's Exp,2023.1.2,60.019290207014336,
Countdown_2s.mp4,green,red,left,Countdown_2s.jpg,12,0,12,0,0,3,3,5,,,,,,,,,,,,1138.8423791999812,1140.2600525000016,1.4176733000203967,right,0,1.399482499982696,94,,,,,,,,,,,,,,fouad,2023-07-16_15h05.07.441,Rewa's Exp,2023.1.2,60.019290207014336,
Countdown_1.5s.mp4,red,green,right,Countdown_1.5s.jpg,12,0,12,0,0,4,4,2,,,,,,,,,,,,1144.220812399988,1144.97691019997,0.7560977999819443,left,0,0.7312168999924324,92,,,,,,,,,,,,,,fouad,2023-07-16_15h05.07.441,Rewa's Exp,2023.1.2,60.019290207014336,
Countdown_2s.mp4,red,green,right,Countdown_2s.jpg,12,0,12,0,0,5,5,1,,,,,,,,,,,,1148.8885062999907,1149.5433694999665,0.6548631999758072,right,1,0.6317792000481859,93,,,,,,,,,,,,,,fouad,2023-07-16_15h05.07.441,Rewa's Exp,2023.1.2,60.019290207014336,
Countdown_2.5s.mp4,red,green,right,Countdown_2.5s.jpg,12,0,12,0,,,,,0,0,0,0,,,,,,,,1153.4681922000018,1154.193359399971,0.7251671999692917,,,,94,1158.8657133000088,right,1,0.7081701999995857,,,,,,,,,,fouad,2023-07-16_15h05.07.441,Rewa's Exp,2023.1.2,60.019290207014336,
Countdown_1.5s.mp4,green,red,left,Countdown_1.5s.jpg,12,0,12,0,,,,,0,1,1,3,,,,,,,,1158.1096062999568,1158.9102515999693,0.8006453000125475,,,,95,1163.5072005999973,left,1,0.777892799989786,,,,,,,,,,fouad,2023-07-16_15h05.07.441,Rewa's Exp,2023.1.2,60.019290207014336,
Countdown_2.5s.mp4,green,red,left,Countdown_2.5s.jpg,12,0,12,0,,,,,0,2,2,4,,,,,,,,1162.8257084999932,1163.7266981999855,0.9009896999923512,,,,96,1168.2233229000121,left,1,0.8783223000355065,,,,,,,,,,fouad,2023-07-16_15h05.07.441,Rewa's Exp,2023.1.2,60.019290207014336,
Countdown_2s.mp4,red,green,right,Countdown_2s.jpg,12,0,12,0,,,,,0,3,3,1,,,,,,,,1167.617930599954,1168.4267192999832,0.808788700029254,,,,97,1173.01550400001,right,1,0.7895657000481151,,,,,,,,,,fouad,2023-07-16_15h05.07.441,Rewa's Exp,2023.1.2,60.019290207014336,
Countdown_2s.mp4,green,red,left,Countdown_2s.jpg,12,0,12,0,,,,,0,4,4,5,,,,,,,,1172.378900599957,1173.4104852999444,1.0315846999874339,,,,98,1177.776530000032,left,1,1.0132414000108838,,,,,,,,,,fouad,2023-07-16_15h05.07.441,Rewa's Exp,2023.1.2,60.019290207014336,
Countdown_1.5s.mp4,red,green,right,Countdown_1.5s.jpg,12,0,12,0,,,,,0,5,5,2,,,,,,,,1177.3593942999723,1178.2441301999497,0.884735899977386,,,,99,1182.7569368000259,right,1,0.8649002000456676,,,,,,,,,,fouad,2023-07-16_15h05.07.441,Rewa's Exp,2023.1.2,60.019290207014336,
Countdown_1.5s.mp4,green,red,left,Countdown_1.5s.jpg,12,0,12,0,,,,,,,,,0,0,0,3,,,,1182.1851052999846,1183.026831700001,0.8417264000163414,,,,100,,,,,left,1,0.8239038999890909,,,,,,,fouad,2023-07-16_15h05.07.441,Rewa's Exp,2023.1.2,60.019290207014336,
Countdown_2s.mp4,green,red,left,Countdown_2s.jpg,12,0,12,0,,,,,,,,,0,1,1,5,,,,1186.9406394999824,1188.0267502999632,1.0861107999808155,,,,101,,,,,left,1,1.0591222000075504,,,,,,,fouad,2023-07-16_15h05.07.441,Rewa's Exp,2023.1.2,60.019290207014336,
Countdown_2.5s.mp4,red,green,right,Countdown_2.5s.jpg,12,0,12,0,,,,,,,,,0,2,2,0,,,,1192.0129871999961,1192.777055799961,0.7640685999649577,,,,102,,,,,right,1,0.7394972000038251,,,,,,,fouad,2023-07-16_15h05.07.441,Rewa's Exp,2023.1.2,60.019290207014336,
Countdown_2.5s.mp4,green,red,left,Countdown_2.5s.jpg,12,0,12,0,,,,,,,,,0,3,3,4,,,,1196.6969423999544,1197.9766243999475,1.2796819999930449,,,,103,,,,,left,1,1.2544980999664403,,,,,,,fouad,2023-07-16_15h05.07.441,Rewa's Exp,2023.1.2,60.019290207014336,
Countdown_2s.mp4,red,green,right,Countdown_2s.jpg,12,0,12,0,,,,,,,,,0,4,4,1,,,,1201.890332799987,1203.2933162999689,1.4029834999819286,,,,101,,,,,left,0,1.3726476999581791,,,,,,,fouad,2023-07-16_15h05.07.441,Rewa's Exp,2023.1.2,60.019290207014336,
Countdown_1.5s.mp4,red,green,right,Countdown_1.5s.jpg,12,0,12,0,,,,,,,,,0,5,5,2,,,,1207.1984850000008,1208.5934054999962,1.3949204999953508,,,,102,,,,,right,1,1.3622702999855392,,,,,,,fouad,2023-07-16_15h05.07.441,Rewa's Exp,2023.1.2,60.019290207014336,
,,,,,12,0,12,0,,,,,,,,,,,,,,,,,,,,,,,,,,,,,,1215.1352245000307,1215.1352245000307,1215.1352245000307,1216.1350959999836,space,12.822089400026016,fouad,2023-07-16_15h05.07.441,Rewa's Exp,2023.1.2,60.019290207014336,
Countdown_2s.mp4,green,red,left,Countdown_2s.jpg,13,0,13,0,0,0,0,5,,,,,,,,,,,,1225.4036079999642,1226.3267598999664,0.9231519000022672,left,1,0.9007438999833539,103,,,,,,,,,,,,,,fouad,2023-07-16_15h05.07.441,Rewa's Exp,2023.1.2,60.019290207014336,
Countdown_1.5s.mp4,green,red,left,Countdown_1.5s.jpg,13,0,13,0,0,1,1,3,,,,,,,,,,,,1230.2710750999977,1230.9439368000021,0.6728617000044324,left,1,0.6489746000152081,104,,,,,,,,,,,,,,fouad,2023-07-16_15h05.07.441,Rewa's Exp,2023.1.2,60.019290207014336,
Countdown_2s.mp4,red,green,right,Countdown_2s.jpg,13,0,13,0,0,2,2,1,,,,,,,,,,,,1234.901485999988,1235.8778022999759,0.9763162999879569,right,1,0.9559207999845967,105,,,,,,,,,,,,,,fouad,2023-07-16_15h05.07.441,Rewa's Exp,2023.1.2,60.019290207014336,
Countdown_1.5s.mp4,red,green,right,Countdown_1.5s.jpg,13,0,13,0,0,3,3,2,,,,,,,,,,,,1239.7732946999604,1240.7435011999914,0.970206500031054,right,1,0.9459502000245266,106,,,,,,,,,,,,,,fouad,2023-07-16_15h05.07.441,Rewa's Exp,2023.1.2,60.019290207014336,
Countdown_2.5s.mp4,green,red,left,Countdown_2.5s.jpg,13,0,13,0,0,4,4,4,,,,,,,,,,,,1244.6840886999853,1245.5100987999467,0.8260100999614224,left,1,0.8036634000018239,107,,,,,,,,,,,,,,fouad,2023-07-16_15h05.07.441,Rewa's Exp,2023.1.2,60.019290207014336,
Countdown_2.5s.mp4,red,green,right,Countdown_2.5s.jpg,13,0,13,0,0,5,5,0,,,,,,,,,,,,1249.4365463999566,1250.3935703999596,0.9570240000030026,right,1,0.93105579999974,108,,,,,,,,,,,,,,fouad,2023-07-16_15h05.07.441,Rewa's Exp,2023.1.2,60.019290207014336,
Countdown_2.5s.mp4,red,green,right,Countdown_2.5s.jpg,13,0,13,0,,,,,0,0,0,0,,,,,,,,1254.3400699999765,1255.760227699997,1.4201577000203542,,,,109,1259.737722299993,right,1,1.3967706999974325,,,,,,,,,,fouad,2023-07-16_15h05.07.441,Rewa's Exp,2023.1.2,60.019290207014336,
Countdown_2.5s.mp4,green,red,left,Countdown_2.5s.jpg,13,0,13,0,,,,,0,1,1,4,,,,,,,,1259.660178399994,1260.9768963999813,1.3167179999873042,,,,110,1265.0578056999948,left,1,1.2923781999852508,,,,,,,,,,fouad,2023-07-16_15h05.07.441,Rewa's Exp,2023.1.2,60.019290207014336,
Countdown_1.5s.mp4,green,red,left,Countdown_1.5s.jpg,13,0,13,0,,,,,0,2,2,3,,,,,,,,1264.9418090999825,1266.4267830999452,1.4849739999626763,,,,108,1270.3394440999837,None,0,,,,,,,,,,,fouad,2023-07-16_15h05.07.441,Rewa's Exp,2023.1.2,60.019290207014336,
Countdown_1.5s.mp4,red,green,right,Countdown_1.5s.jpg,13,0,13,0,,,,,0,3,3,2,,,,,,,,1270.342998499982,1271.510063099966,1.1670645999838598,,,,109,1275.7406271999935,right,1,1.138162099989131,,,,,,,,,,fouad,2023-07-16_15h05.07.441,Rewa's Exp,2023.1.2,60.019290207014336,
Countdown_2s.mp4,green,red,left,Countdown_2s.jpg,13,0,13,0,,,,,0,4,4,5,,,,,,,,1275.4168021999649,1276.2769544999464,0.8601522999815643,,,,110,1280.8144600000232,left,1,0.830716600001324,,,,,,,,,,fouad,2023-07-16_15h05.07.441,Rewa's Exp,2023.1.2,60.019290207014336,
Countdown_2s.mp4,red,green,right,Countdown_2s.jpg,13,0,13,0,,,,,0,5,5,1,,,,,,,,1280.1627628999995,1281.1943180999951,1.031555199995637,,,,111,1285.56037620001,right,1,1.0054763000225648,,,,,,,,,,fouad,2023-07-16_15h05.07.441,Rewa's Exp,2023.1.2,60.019290207014336,
Countdown_2.5s.mp4,green,red,left,Countdown_2.5s.jpg,13,0,13,0,,,,,,,,,0,0,0,4,,,,1285.1574437999516,1286.0101587999961,0.8527150000445545,,,,112,,,,,left,1,0.8272964999778196,,,,,,,fouad,2023-07-16_15h05.07.441,Rewa's Exp,2023.1.2,60.019290207014336,
Countdown_2.5s.mp4,red,green,right,Countdown_2.5s.jpg,13,0,13,0,,,,,,,,,0,1,1,0,,,,1289.9604684999795,1290.8937557999743,0.9332872999948449,,,,113,,,,,right,1,0.9120363999973051,,,,,,,fouad,2023-07-16_15h05.07.441,Rewa's Exp,2023.1.2,60.019290207014336,
Countdown_2s.mp4,green,red,left,Countdown_2s.jpg,13,0,13,0,,,,,,,,,0,2,2,5,,,,1294.7977984999889,1295.577081699972,0.7792831999831833,,,,114,,,,,left,1,0.753980599984061,,,,,,,fouad,2023-07-16_15h05.07.441,Rewa's Exp,2023.1.2,60.019290207014336,
Countdown_2s.mp4,red,green,right,Countdown_2s.jpg,13,0,13,0,,,,,,,,,0,3,3,1,,,,1299.4648536999593,1300.1935366999824,0.7286830000230111,,,,115,,,,,right,1,0.7110815000487491,,,,,,,fouad,2023-07-16_15h05.07.441,Rewa's Exp,2023.1.2,60.019290207014336,
Countdown_1.5s.mp4,green,red,left,Countdown_1.5s.jpg,13,0,13,0,,,,,,,,,0,4,4,3,,,,1304.104057999968,1304.7605443999637,0.6564863999956287,,,,116,,,,,left,1,0.6310893999761902,,,,,,,fouad,2023-07-16_15h05.07.441,Rewa's Exp,2023.1.2,60.019290207014336,
Countdown_1.5s.mp4,red,green,right,Countdown_1.5s.jpg,13,0,13,0,,,,,,,,,0,5,5,2,,,,1308.6528650999535,1309.4451531999512,0.7922880999976769,,,,117,,,,,right,1,0.7718740000273101,,,,,,,fouad,2023-07-16_15h05.07.441,Rewa's Exp,2023.1.2,60.019290207014336,
,,,,,13,0,13,0,,,,,,,,,,,,,,,,,,,,,,,,,,,,,,1315.9854215999949,1315.9854215999949,1315.9854215999949,1316.9853471000097,space,1.4204887000378221,fouad,2023-07-16_15h05.07.441,Rewa's Exp,2023.1.2,60.019290207014336,
Countdown_2.5s.mp4,red,green,right,Countdown_2.5s.jpg,14,0,14,0,0,0,0,0,,,,,,,,,,,,1314.8307057999773,1315.9437594999908,1.1130537000135519,right,1,1.0809268999728374,118,,,,,,,,,,,,,,fouad,2023-07-16_15h05.07.441,Rewa's Exp,2023.1.2,60.019290207014336,
Countdown_1.5s.mp4,red,green,right,Countdown_1.5s.jpg,14,0,14,0,0,1,1,2,,,,,,,,,,,,1319.907253399957,1320.9568057999713,1.0495524000143632,right,1,1.0138273000484332,119,,,,,,,,,,,,,,fouad,2023-07-16_15h05.07.441,Rewa's Exp,2023.1.2,60.019290207014336,
Countdown_2.5s.mp4,green,red,left,Countdown_2.5s.jpg,14,0,14,0,0,2,2,4,,,,,,,,,,,,1324.8647599999676,1325.6438480999786,0.7790881000109948,left,1,0.7592484999913722,120,,,,,,,,,,,,,,fouad,2023-07-16_15h05.07.441,Rewa's Exp,2023.1.2,60.019290207014336,
Countdown_2s.mp4,green,red,left,Countdown_2s.jpg,14,0,14,0,0,3,3,5,,,,,,,,,,,,1329.5479130999884,1330.5774535999517,1.029540499963332,left,1,1.0033818000229076,121,,,,,,,,,,,,,,fouad,2023-07-16_15h05.07.441,Rewa's Exp,2023.1.2,60.019290207014336,
Countdown_1.5s.mp4,green,red,left,Countdown_1.5s.jpg,14,0,14,0,0,4,4,3,,,,,,,,,,,,1334.5018367999583,1335.5604015999706,1.058564800012391,left,1,1.0261270999908447,122,,,,,,,,,,,,,,fouad,2023-07-16_15h05.07.441,Rewa's Exp,2023.1.2,60.019290207014336,
Countdown_2s.mp4,red,green,right,Countdown_2s.jpg,14,0,14,0,0,5,5,1,,,,,,,,,,,,1339.4589676999603,1340.7435551999952,1.2845875000348315,left,0,1.2523688999935985,120,,,,,,,,,,,,,,fouad,2023-07-16_15h05.07.441,Rewa's Exp,2023.1.2,60.019290207014336,
Countdown_2.5s.mp4,red,green,right,Countdown_2.5s.jpg,14,0,14,0,,,,,0,0,0,0,,,,,,,,1344.6637558999937,1345.476984399953,0.813228499959223,,,,121,1350.061425700027,right,1,0.7842798999627121,,,,,,,,,,fouad,2023-07-16_15h05.07.441,Rewa's Exp,2023.1.2,60.019290207014336,
Countdown_1.5s.mp4,green,red,left,Countdown_1.5s.jpg,14,0,14,0,,,,,0,1,1,3,,,,,,,,1349.4311239999952,1350.7270358999958,1.2959119000006467,,,,119,1354.8287213000003,right,0,1.2640946000465192,,,,,,,,,,fouad,2023-07-16_15h05.07.441,Rewa's Exp,2023.1.2,60.019290207014336,
Countdown_2s.mp4,red,green,right,Countdown_2s.jpg,14,0,14,0,,,,,0,2,2,1,,,,,,,,1354.6362114999793,1356.143633199972,1.5074216999928467,,,,120,1360.0338448000257,right,1,1.4842230000067502,,,,,,,,,,fouad,2023-07-16_15h05.07.441,Rewa's Exp,2023.1.2,60.019290207014336,
Countdown_2s.mp4,green,red,left,Countdown_2s.jpg,14,0,14,0,,,,,0,3,3,5,,,,,,,,1360.069912499981,1360.8439949999447,0.774082499963697,,,,121,1365.467559200013,left,1,0.7459309999831021,,,,,,,,,,fouad,2023-07-16_15h05.07.441,Rewa's Exp,2023.1.2,60.019290207014336,
Countdown_1.5s.mp4,red,green,right,Countdown_1.5s.jpg,14,0,14,0,,,,,0,4,4,2,,,,,,,,1364.739716399985,1365.9769629999646,1.2372465999796987,,,,122,1370.1373333000229,right,1,1.2201539000379853,,,,,,,,,,fouad,2023-07-16_15h05.07.441,Rewa's Exp,2023.1.2,60.019290207014336,
Countdown_2.5s.mp4,green,red,left,Countdown_2.5s.jpg,14,0,14,0,,,,,0,5,5,4,,,,,,,,1369.8935593999922,1371.3436362999491,1.4500768999569118,,,,123,1375.2911753000226,left,1,1.4336811000248417,,,,,,,,,,fouad,2023-07-16_15h05.07.441,Rewa's Exp,2023.1.2,60.019290207014336,
Countdown_2.5s.mp4,green,red,left,Countdown_2.5s.jpg,14,0,14,0,,,,,,,,,0,0,0,4,,,,1375.2737311999663,1376.3604360999889,1.0867049000225961,,,,124,,,,,left,1,1.062524900014978,,,,,,,fouad,2023-07-16_15h05.07.441,Rewa's Exp,2023.1.2,60.019290207014336,
Countdown_1.5s.mp4,green,red,left,Countdown_1.5s.jpg,14,0,14,0,,,,,,,,,0,1,1,3,,,,1380.2784775999608,1381.6938002999523,1.4153226999915205,,,,122,,,,,right,0,1.3937191999866627,,,,,,,fouad,2023-07-16_15h05.07.441,Rewa's Exp,2023.1.2,60.019290207014336,
Countdown_2.5s.mp4,red,green,right,Countdown_2.5s.jpg,14,0,14,0,,,,,,,,,0,2,2,0,,,,1385.5985613999655,1386.6939648999833,1.09540350001771,,,,123,,,,,right,1,1.064761100045871,,,,,,,fouad,2023-07-16_15h05.07.441,Rewa's Exp,2023.1.2,60.019290207014336,
Countdown_2s.mp4,green,red,left,Countdown_2s.jpg,14,0,14,0,,,,,,,,,0,3,3,5,,,,1390.6229541999637,1391.6436272999854,1.0206731000216678,,,,124,,,,,left,1,1.0010411000112072,,,,,,,fouad,2023-07-16_15h05.07.441,Rewa's Exp,2023.1.2,60.019290207014336,
Countdown_1.5s.mp4,red,green,right,Countdown_1.5s.jpg,14,0,14,0,,,,,,,,,0,4,4,2,,,,1395.5456738999928,1396.4272253999952,0.8815515000023879,,,,125,,,,,right,1,0.8631628000293858,,,,,,,fouad,2023-07-16_15h05.07.441,Rewa's Exp,2023.1.2,60.019290207014336,
Countdown_2s.mp4,red,green,right,Countdown_2s.jpg,14,0,14,0,,,,,,,,,0,5,5,1,,,,1400.3375354999444,1401.4270631999825,1.0895277000381611,,,,126,,,,,right,1,1.0622648999560624,,,,,,,fouad,2023-07-16_15h05.07.441,Rewa's Exp,2023.1.2,60.019290207014336,
,,,,,14,0,14,0,,,,,,,,,,,,,,,,,,,,,,,,,,,,,,1407.9523984999978,1407.9523984999978,1407.9523984999978,1408.9522999000037,space,2.2050783000304364,fouad,2023-07-16_15h05.07.441,Rewa's Exp,2023.1.2,60.019290207014336,
Countdown_1.5s.mp4,red,green,right,Countdown_1.5s.jpg,15,0,15,0,0,0,0,2,,,,,,,,,,,,1407.5754656999488,1408.7772751000011,1.2018094000522979,right,1,1.1776424000272527,127,,,,,,,,,,,,,,fouad,2023-07-16_15h05.07.441,Rewa's Exp,2023.1.2,60.019290207014336,
Countdown_1.5s.mp4,green,red,left,Countdown_1.5s.jpg,15,0,15,0,0,1,1,3,,,,,,,,,,,,1412.6898132999777,1413.6771815999527,0.9873682999750599,left,1,0.9658138999948278,128,,,,,,,,,,,,,,fouad,2023-07-16_15h05.07.441,Rewa's Exp,2023.1.2,60.019290207014336,
Countdown_2s.mp4,red,green,right,Countdown_2s.jpg,15,0,15,0,0,2,2,1,,,,,,,,,,,,1417.6077470000018,1418.310570599977,0.7028235999750905,right,1,0.671767899999395,129,,,,,,,,,,,,,,fouad,2023-07-16_15h05.07.441,Rewa's Exp,2023.1.2,60.019290207014336,
Countdown_2.5s.mp4,red,green,right,Countdown_2.5s.jpg,15,0,15,0,0,3,3,0,,,,,,,,,,,,1422.2040953999967,1423.2937084999867,1.089613099989947,right,1,1.0692757000215352,130,,,,,,,,,,,,,,fouad,2023-07-16_15h05.07.441,Rewa's Exp,2023.1.2,60.019290207014336,
Countdown_2.5s.mp4,green,red,left,Countdown_2.5s.jpg,15,0,15,0,0,4,4,4,,,,,,,,,,,,1427.2040560999885,1428.1438530999585,0.9397969999699853,left,1,0.9168869000277482,131,,,,,,,,,,,,,,fouad,2023-07-16_15h05.07.441,Rewa's Exp,2023.1.2,60.019290207014336,
Countdown_2s.mp4,green,red,left,Countdown_2s.jpg,15,0,15,0,0,5,5,5,,,,,,,,,,,,1432.043380899995,1432.8776867999695,0.8343058999744244,left,1,0.8126848000101745,132,,,,,,,,,,,,,,fouad,2023-07-16_15h05.07.441,Rewa's Exp,2023.1.2,60.019290207014336,
Countdown_1.5s.mp4,green,red,left,Countdown_1.5s.jpg,15,0,15,0,,,,,0,0,0,3,,,,,,,,1436.827504099987,1437.9439354999922,1.11643140000524,,,,133,1442.2251304000383,left,1,1.0847011000150815,,,,,,,,,,fouad,2023-07-16_15h05.07.441,Rewa's Exp,2023.1.2,60.019290207014336,
Countdown_2s.mp4,green,red,left,Countdown_2s.jpg,15,0,15,0,,,,,0,1,1,5,,,,,,,,1441.905440399947,1442.5606113999966,0.6551710000494495,,,,134,1447.3031056000036,left,1,0.6381102000013925,,,,,,,,,,fouad,2023-07-16_15h05.07.441,Rewa's Exp,2023.1.2,60.019290207014336,
Countdown_1.5s.mp4,red,green,right,Countdown_1.5s.jpg,15,0,15,0,,,,,0,2,2,2,,,,,,,,1446.46219619998,1447.243939399952,0.7817431999719702,,,,135,1451.859819300007,right,1,0.7623074000002816,,,,,,,,,,fouad,2023-07-16_15h05.07.441,Rewa's Exp,2023.1.2,60.019290207014336,
Countdown_2.5s.mp4,green,red,left,Countdown_2.5s.jpg,15,0,15,0,,,,,0,3,3,4,,,,,,,,1451.1184562999988,1451.777290500002,0.6588342000031844,,,,136,1456.5160529999994,left,1,0.6419966999674216,,,,,,,,,,fouad,2023-07-16_15h05.07.441,Rewa's Exp,2023.1.2,60.019290207014336,
Countdown_2.5s.mp4,red,green,right,Countdown_2.5s.jpg,15,0,15,0,,,,,0,4,4,0,,,,,,,,1455.6801174999564,1456.4272511999588,0.7471337000024505,,,,137,1461.077718399989,right,1,0.7290278999716975,,,,,,,,,,fouad,2023-07-16_15h05.07.441,Rewa's Exp,2023.1.2,60.019290207014336,
Countdown_2s.mp4,red,green,right,Countdown_2s.jpg,15,0,15,0,,,,,0,5,5,1,,,,,,,,1460.3603159999475,1460.8606090999674,0.5002931000199169,,,,138,1465.7579682000214,right,1,0.47092239995254204,,,,,,,,,,fouad,2023-07-16_15h05.07.441,Rewa's Exp,2023.1.2,60.019290207014336,
Countdown_1.5s.mp4,green,red,left,Countdown_1.5s.jpg,15,0,15,0,,,,,,,,,0,0,0,3,,,,1464.7825079999748,1465.760725399945,0.9782173999701627,,,,139,,,,,left,1,0.954525500012096,,,,,,,fouad,2023-07-16_15h05.07.441,Rewa's Exp,2023.1.2,60.019290207014336,
Countdown_2.5s.mp4,red,green,right,Countdown_2.5s.jpg,15,0,15,0,,,,,,,,,0,1,1,0,,,,1469.6548015999724,1470.2773935999721,0.6225919999997132,,,,140,,,,,right,1,0.5926292999647558,,,,,,,fouad,2023-07-16_15h05.07.441,Rewa's Exp,2023.1.2,60.019290207014336,
Countdown_2s.mp4,green,red,left,Countdown_2s.jpg,15,0,15,0,,,,,,,,,0,2,2,5,,,,1474.1716285999864,1475.1770665999502,1.0054379999637604,,,,141,,,,,left,1,0.9734162999666296,,,,,,,fouad,2023-07-16_15h05.07.441,Rewa's Exp,2023.1.2,60.019290207014336,
Countdown_2s.mp4,red,green,right,Countdown_2s.jpg,15,0,15,0,,,,,,,,,0,3,3,1,,,,1479.1302419999847,1479.9440044999938,0.8137625000090338,,,,142,,,,,right,1,0.7809903000015765,,,,,,,fouad,2023-07-16_15h05.07.441,Rewa's Exp,2023.1.2,60.019290207014336,
Countdown_2.5s.mp4,green,red,left,Countdown_2.5s.jpg,15,0,15,0,,,,,,,,,0,4,4,4,,,,1483.887367599993,1484.7442335999804,0.8568659999873489,,,,143,,,,,left,1,0.824044699955266,,,,,,,fouad,2023-07-16_15h05.07.441,Rewa's Exp,2023.1.2,60.019290207014336,
Countdown_1.5s.mp4,red,green,right,Countdown_1.5s.jpg,15,0,15,0,,,,,,,,,0,5,5,2,,,,1488.6360746999853,1489.5108729999629,0.8747982999775559,,,,141,,,,,left,0,0.8519923000130802,,,,,,,fouad,2023-07-16_15h05.07.441,Rewa's Exp,2023.1.2,60.019290207014336,
,,,,,15,0,15,0,,,,,,,,,,,,,,,,,,,,,,,,,,,,,,1496.0524307999876,1496.0524307999876,1496.0524307999876,1497.0523380000377,space,1.562014100025408,fouad,2023-07-16_15h05.07.441,Rewa's Exp,2023.1.2,60.019290207014336,
Countdown_1.5s.mp4,red,green,right,Countdown_1.5s.jpg,16,0,16,0,0,0,0,2,,,,,,,,,,,,1495.0301559999934,1495.9940480999649,0.9638920999714173,right,1,0.94580240000505,142,,,,,,,,,,,,,,fouad,2023-07-16_15h05.07.441,Rewa's Exp,2023.1.2,60.019290207014336,
Countdown_1.5s.mp4,green,red,left,Countdown_1.5s.jpg,16,0,16,0,0,1,1,3,,,,,,,,,,,,1499.921368899988,1501.093937699974,1.1725687999860384,left,1,1.1427091000368819,143,,,,,,,,,,,,,,fouad,2023-07-16_15h05.07.441,Rewa's Exp,2023.1.2,60.019290207014336,
Countdown_2s.mp4,green,red,left,Countdown_2s.jpg,16,0,16,0,0,2,2,5,,,,,,,,,,,,1505.0147657999769,1505.6608097999706,0.646043999993708,left,1,0.6167370000039227,144,,,,,,,,,,,,,,fouad,2023-07-16_15h05.07.441,Rewa's Exp,2023.1.2,60.019290207014336,
Countdown_2s.mp4,red,green,right,Countdown_2s.jpg,16,0,16,0,0,3,3,1,,,,,,,,,,,,1509.5586550000007,1510.3940628999844,0.8354078999836929,right,1,0.8182670000242069,145,,,,,,,,,,,,,,fouad,2023-07-16_15h05.07.441,Rewa's Exp,2023.1.2,60.019290207014336,
Countdown_2.5s.mp4,green,red,left,Countdown_2.5s.jpg,16,0,16,0,0,4,4,4,,,,,,,,,,,,1514.3692685999558,1515.0107135999715,0.6414450000156648,left,1,0.6238678999943659,146,,,,,,,,,,,,,,fouad,2023-07-16_15h05.07.441,Rewa's Exp,2023.1.2,60.019290207014336,
Countdown_2.5s.mp4,red,green,right,Countdown_2.5s.jpg,16,0,16,0,0,5,5,0,,,,,,,,,,,,1518.9207687999588,1519.8441674999776,0.923398700018879,right,1,0.8948405999690294,147,,,,,,,,,,,,,,fouad,2023-07-16_15h05.07.441,Rewa's Exp,2023.1.2,60.019290207014336,
Countdown_2.5s.mp4,red,green,right,Countdown_2.5s.jpg,16,0,16,0,,,,,0,0,0,0,,,,,,,,1523.7622235999443,1524.3605936999666,0.5983701000222936,,,,148,1529.1598530000192,right,1,0.5744794000056572,,,,,,,,,,fouad,2023-07-16_15h05.07.441,Rewa's Exp,2023.1.2,60.019290207014336,
Countdown_2s.mp4,red,green,right,Countdown_2s.jpg,16,0,16,0,,,,,0,1,1,1,,,,,,,,1528.2718505999655,1528.9447125999723,0.6728620000067167,,,,149,1533.6694957999862,right,1,0.6488783999811858,,,,,,,,,,fouad,2023-07-16_15h05.07.441,Rewa's Exp,2023.1.2,60.019290207014336,
Countdown_1.5s.mp4,red,green,right,Countdown_1.5s.jpg,16,0,16,0,,,,,0,2,2,2,,,,,,,,1532.9071075999527,1533.5610014999984,0.6538939000456594,,,,150,1538.3047595000244,right,1,0.6289197000442073,,,,,,,,,,fouad,2023-07-16_15h05.07.441,Rewa's Exp,2023.1.2,60.019290207014336,
Countdown_2s.mp4,green,red,left,Countdown_2s.jpg,16,0,16,0,,,,,0,3,3,5,,,,,,,,1537.4977225999464,1538.9440073999576,1.446284800011199,,,,151,1542.8953472999856,left,1,1.4217769000097178,,,,,,,,,,fouad,2023-07-16_15h05.07.441,Rewa's Exp,2023.1.2,60.019290207014336,
Countdown_2.5s.mp4,green,red,left,Countdown_2.5s.jpg,16,0,16,0,,,,,0,4,4,4,,,,,,,,1542.8932623,1543.8446027999744,0.9513404999743216,,,,152,1548.2908777000266,left,1,0.9224816000205465,,,,,,,,,,fouad,2023-07-16_15h05.07.441,Rewa's Exp,2023.1.2,60.019290207014336,
Countdown_1.5s.mp4,green,red,left,Countdown_1.5s.jpg,16,0,16,0,,,,,0,5,5,3,,,,,,,,1547.7765242999885,1548.4940598999965,0.7175356000079773,,,,153,1553.1741370999953,left,1,0.6875115999719128,,,,,,,,,,fouad,2023-07-16_15h05.07.441,Rewa's Exp,2023.1.2,60.019290207014336,
Countdown_2.5s.mp4,green,red,left,Countdown_2.5s.jpg,16,0,16,0,,,,,,,,,0,0,0,4,,,,1552.4353714999743,1553.010822399985,0.5754509000107646,,,,154,,,,,left,1,0.5500349000212736,,,,,,,fouad,2023-07-16_15h05.07.441,Rewa's Exp,2023.1.2,60.019290207014336,
Countdown_1.5s.mp4,green,red,left,Countdown_1.5s.jpg,16,0,16,0,,,,,,,,,0,1,1,3,,,,1556.9046469999594,1557.5274638999836,0.6228169000241905,,,,152,,,,,right,0,0.5996176000335254,,,,,,,fouad,2023-07-16_15h05.07.441,Rewa's Exp,2023.1.2,60.019290207014336,
Countdown_2s.mp4,green,red,left,Countdown_2s.jpg,16,0,16,0,,,,,,,,,0,2,2,5,,,,1561.4221204999485,1562.1777452999959,0.7556248000473715,,,,153,,,,,left,1,0.7294619000167586,,,,,,,fouad,2023-07-16_15h05.07.441,Rewa's Exp,2023.1.2,60.019290207014336,
Countdown_2s.mp4,red,green,right,Countdown_2s.jpg,16,0,16,0,,,,,,,,,0,3,3,1,,,,1566.1434756999952,1566.710870699957,0.5673949999618344,,,,154,,,,,right,1,0.5363356999587268,,,,,,,fouad,2023-07-16_15h05.07.441,Rewa's Exp,2023.1.2,60.019290207014336,
Countdown_1.5s.mp4,red,green,right,Countdown_1.5s.jpg,16,0,16,0,,,,,,,,,0,4,4,2,,,,1570.6236857999465,1571.2441949999775,0.6205092000309378,,,,155,,,,,right,1,0.6010763000231236,,,,,,,fouad,2023-07-16_15h05.07.441,Rewa's Exp,2023.1.2,60.019290207014336,
Countdown_2.5s.mp4,red,green,right,Countdown_2.5s.jpg,16,0,16,0,,,,,,,,,0,5,5,0,,,,1575.1449786999729,1575.694388999953,0.5494102999800816,,,,156,,,,,right,1,0.5272284999955446,,,,,,,fouad,2023-07-16_15h05.07.441,Rewa's Exp,2023.1.2,60.019290207014336,
,,,,,16,0,16,0,,,,,,,,,,,,,,,,,,,,,,,,,,,,,,1582.2359115,1582.2359115,1582.2359115,1583.2359582000063,space,2.3370663999812678,fouad,2023-07-16_15h05.07.441,Rewa's Exp,2023.1.2,60.019290207014336,
Countdown_2.5s.mp4,red,green,right,Countdown_2.5s.jpg,17,0,17,0,0,0,0,0,,,,,,,,,,,,1581.989460999961,1582.5779540999793,0.5884931000182405,right,1,0.5629084000247531,157,,,,,,,,,,,,,,fouad,2023-07-16_15h05.07.441,Rewa's Exp,2023.1.2,60.019290207014336,
Countdown_2s.mp4,red,green,right,Countdown_2s.jpg,17,0,17,0,0,1,1,1,,,,,,,,,,,,1586.498719599971,1586.994227999996,0.4955084000248462,right,1,0.4776570000103675,158,,,,,,,,,,,,,,fouad,2023-07-16_15h05.07.441,Rewa's Exp,2023.1.2,60.019290207014336,
Countdown_2.5s.mp4,green,red,left,Countdown_2.5s.jpg,17,0,17,0,0,2,2,4,,,,,,,,,,,,1590.9162548999884,1591.628302099998,0.7120472000096925,left,1,0.6916755000129342,159,,,,,,,,,,,,,,fouad,2023-07-16_15h05.07.441,Rewa's Exp,2023.1.2,60.019290207014336,
Countdown_1.5s.mp4,red,green,right,Countdown_1.5s.jpg,17,0,17,0,0,3,3,2,,,,,,,,,,,,1595.5551967999781,1596.4108279999928,0.8556312000146136,right,1,0.8297571000293829,160,,,,,,,,,,,,,,fouad,2023-07-16_15h05.07.441,Rewa's Exp,2023.1.2,60.019290207014336,
Countdown_2s.mp4,green,red,left,Countdown_2s.jpg,17,0,17,0,0,4,4,5,,,,,,,,,,,,1600.2968938999693,1600.9942663999973,0.6973725000279956,left,1,0.6792483000317588,161,,,,,,,,,,,,,,fouad,2023-07-16_15h05.07.441,Rewa's Exp,2023.1.2,60.019290207014336,
Countdown_1.5s.mp4,green,red,left,Countdown_1.5s.jpg,17,0,17,0,0,5,5,3,,,,,,,,,,,,1604.8889596999506,1605.5615373999462,0.6725776999955997,left,1,0.6389418999897316,162,,,,,,,,,,,,,,fouad,2023-07-16_15h05.07.441,Rewa's Exp,2023.1.2,60.019290207014336,
Countdown_1.5s.mp4,green,red,left,Countdown_1.5s.jpg,17,0,17,0,,,,,0,0,0,3,,,,,,,,1609.5156862000003,1610.1944699999876,0.6787837999872863,,,,160,1614.913326000038,right,0,0.6520339000271633,,,,,,,,,,fouad,2023-07-16_15h05.07.441,Rewa's Exp,2023.1.2,60.019290207014336,
Countdown_2.5s.mp4,red,green,right,Countdown_2.5s.jpg,17,0,17,0,,,,,0,1,1,0,,,,,,,,1614.1272068999824,1614.7776459999732,0.6504390999907628,,,,161,1619.524861700018,right,1,0.6176468000048772,,,,,,,,,,fouad,2023-07-16_15h05.07.441,Rewa's Exp,2023.1.2,60.019290207014336,
Countdown_1.5s.mp4,red,green,right,Countdown_1.5s.jpg,17,0,17,0,,,,,0,2,2,2,,,,,,,,1618.7120346999727,1619.2616711999872,0.5496365000144579,,,,162,1624.109689200006,right,1,0.5290579000138678,,,,,,,,,,fouad,2023-07-16_15h05.07.441,Rewa's Exp,2023.1.2,60.019290207014336,
Countdown_2s.mp4,green,red,left,Countdown_2s.jpg,17,0,17,0,,,,,0,3,3,5,,,,,,,,1623.1795951999957,1623.8116160999634,0.6320208999677561,,,,163,1628.5772312000045,left,1,0.6045316999661736,,,,,,,,,,fouad,2023-07-16_15h05.07.441,Rewa's Exp,2023.1.2,60.019290207014336,
Countdown_2.5s.mp4,green,red,left,Countdown_2.5s.jpg,17,0,17,0,,,,,0,4,4,4,,,,,,,,1627.725764999981,1628.3776879999787,0.6519229999976233,,,,164,1633.1233966000145,left,1,0.6346329000080004,,,,,,,,,,fouad,2023-07-16_15h05.07.441,Rewa's Exp,2023.1.2,60.019290207014336,
Countdown_2s.mp4,red,green,right,Countdown_2s.jpg,17,0,17,0,,,,,0,5,5,1,,,,,,,,1632.3172935999464,1632.9276841999963,0.6103906000498682,,,,165,1637.7149484999827,right,1,0.578855499974452,,,,,,,,,,fouad,2023-07-16_15h05.07.441,Rewa's Exp,2023.1.2,60.019290207014336,
Countdown_1.5s.mp4,green,red,left,Countdown_1.5s.jpg,17,0,17,0,,,,,,,,,0,0,0,3,,,,1636.8824720999692,1637.7776542999782,0.8951822000090033,,,,163,,,,,right,0,0.869065499980934,,,,,,,fouad,2023-07-16_15h05.07.441,Rewa's Exp,2023.1.2,60.019290207014336,
Countdown_1.5s.mp4,red,green,right,Countdown_1.5s.jpg,17,0,17,0,,,,,,,,,0,1,1,2,,,,1641.6749689999851,1642.3610645000008,0.6860955000156537,,,,164,,,,,right,1,0.6536201000562869,,,,,,,fouad,2023-07-16_15h05.07.441,Rewa's Exp,2023.1.2,60.019290207014336,
Countdown_2.5s.mp4,red,green,right,Countdown_2.5s.jpg,17,0,17,0,,,,,,,,,0,2,2,0,,,,1646.2742928999942,1647.3608180999872,1.0865251999930479,,,,162,,,,,left,0,1.0699867000221275,,,,,,,fouad,2023-07-16_15h05.07.441,Rewa's Exp,2023.1.2,60.019290207014336,
Countdown_2.5s.mp4,green,red,left,Countdown_2.5s.jpg,17,0,17,0,,,,,,,,,0,3,3,4,,,,1651.2724741999991,1652.344969399972,1.0724951999727637,,,,160,,,,,right,0,1.0497077999752946,,,,,,,fouad,2023-07-16_15h05.07.441,Rewa's Exp,2023.1.2,60.019290207014336,
Countdown_2s.mp4,red,green,right,Countdown_2s.jpg,17,0,17,0,,,,,,,,,0,4,4,1,,,,1656.2672895999858,1657.5609915999812,1.2937019999953918,,,,158,,,,,left,0,1.2609125000308268,,,,,,,fouad,2023-07-16_15h05.07.441,Rewa's Exp,2023.1.2,60.019290207014336,
Countdown_2s.mp4,green,red,left,Countdown_2s.jpg,17,0,17,0,,,,,,,,,0,5,5,5,,,,1661.472539999988,1662.4777311999933,1.0051912000053562,,,,156,,,,,right,0,0.9838181000086479,,,,,,,fouad,2023-07-16_15h05.07.441,Rewa's Exp,2023.1.2,60.019290207014336,
,,,,,17,0,17,0,,,,,,,,,,,,,,,,,,,,,,,,,,,,,,1669.002810600039,1669.002810600039,1669.002810600039,1670.0027799000381,space,1.3723186999559402,fouad,2023-07-16_15h05.07.441,Rewa's Exp,2023.1.2,60.019290207014336,
