Countdown,color1,color2,correct,screenshot,trials.thisRepN,trials.thisTrialN,trials.thisN,trials.thisIndex,trials_6040.thisRepN,trials_6040.thisTrialN,trials_6040.thisN,trials_6040.thisIndex,trials_5743.thisRepN,trials_5743.thisTrialN,trials_5743.thisN,trials_5743.thisIndex,trials_5446.thisRepN,trials_5446.thisTrialN,trials_5446.thisN,trials_5446.thisIndex,key_resp_2.started,key_resp_2.keys,key_resp_2.rt,Videoshowstart,Videoshowstop,VideoshowRT,response.keys,response.corr,response.rt,total_score,Left_3.started,response_2.keys,response_2.corr,response_2.rt,response_3.keys,response_3.corr,response_3.rt,text_2.started,text_5.started,text_6.started,key_resp.keys,key_resp.rt,participant,date,expName,psychopyVersion,frameRate,
,,,,,,,,,,,,,,,,,,,,,66.64942849997897,space,12.335668099985924,,,,,,,,,,,,,,,,,,,,negar,2023-07-18_12h41.56.484,Rewa's Exp,2023.1.2,59.96857646402143,
Countdown_2.5s.mp4,red,green,right,Countdown_2.5s.jpg,0,0,0,0,0,0,0,0,,,,,,,,,,,,76.10436240001582,77.73275439999998,1.62839199998416,right,1,1.6102686999947764,1,,,,,,,,,,,,,negar,2023-07-18_12h41.56.484,Rewa's Exp,2023.1.2,59.96857646402143,
Countdown_2s.mp4,red,green,right,Countdown_2s.jpg,0,0,0,0,0,1,1,1,,,,,,,,,,,,81.65557579998858,83.13182670000242,1.476250900013838,left,0,1.4430029999930412,-1,,,,,,,,,,,,,negar,2023-07-18_12h41.56.484,Rewa's Exp,2023.1.2,59.96857646402143,
Countdown_2.5s.mp4,green,red,left,Countdown_2.5s.jpg,0,0,0,0,0,2,2,4,,,,,,,,,,,,87.11098549998133,87.9649664000026,0.8539809000212699,left,1,0.8272141999914311,0,,,,,,,,,,,,,negar,2023-07-18_12h41.56.484,Rewa's Exp,2023.1.2,59.96857646402143,
Countdown_2s.mp4,green,red,left,Countdown_2s.jpg,0,0,0,0,0,3,3,5,,,,,,,,,,,,91.86752710002474,92.74858549999772,0.8810583999729715,left,1,0.8641932999598794,1,,,,,,,,,,,,,negar,2023-07-18_12h41.56.484,Rewa's Exp,2023.1.2,59.96857646402143,
Countdown_1.5s.mp4,green,red,left,Countdown_1.5s.jpg,0,0,0,0,0,4,4,3,,,,,,,,,,,,96.70126230001915,97.46517109998967,0.7639087999705225,left,1,0.741965799999889,2,,,,,,,,,,,,,negar,2023-07-18_12h41.56.484,Rewa's Exp,2023.1.2,59.96857646402143,
Countdown_1.5s.mp4,red,green,right,Countdown_1.5s.jpg,0,0,0,0,0,5,5,2,,,,,,,,,,,,101.3864555999753,102.16513400000986,0.7786784000345506,right,1,0.7612261999747716,3,,,,,,,,,,,,,negar,2023-07-18_12h41.56.484,Rewa's Exp,2023.1.2,59.96857646402143,
Countdown_2s.mp4,green,red,left,Countdown_2s.jpg,0,0,0,0,,,,,0,0,0,5,,,,,,,,105.89403640001547,106.74846049997723,0.8544240999617614,,,,4,111.48431630001869,left,1,0.821411499986425,,,,,,,,,negar,2023-07-18_12h41.56.484,Rewa's Exp,2023.1.2,59.96857646402143,
Countdown_2s.mp4,red,green,right,Countdown_2s.jpg,0,0,0,0,,,,,0,1,1,1,,,,,,,,110.67052360001253,111.64838410000084,0.97786049998831,,,,2,116.26080330001423,left,0,0.957282799994573,,,,,,,,,negar,2023-07-18_12h41.56.484,Rewa's Exp,2023.1.2,59.96857646402143,
Countdown_1.5s.mp4,green,red,left,Countdown_1.5s.jpg,0,0,0,0,,,,,0,2,2,3,,,,,,,,115.55086640000809,116.54850480001187,0.9976384000037797,,,,3,121.14115219999803,left,1,0.9725705999881029,,,,,,,,,negar,2023-07-18_12h41.56.484,Rewa's Exp,2023.1.2,59.96857646402143,
Countdown_1.5s.mp4,red,green,right,Countdown_1.5s.jpg,0,0,0,0,,,,,0,3,3,2,,,,,,,,120.47669460001634,121.43193179997616,0.9552371999598108,,,,4,126.06698200001847,right,1,0.9262411000090651,,,,,,,,,negar,2023-07-18_12h41.56.484,Rewa's Exp,2023.1.2,59.96857646402143,
Countdown_2.5s.mp4,red,green,right,Countdown_2.5s.jpg,0,0,0,0,,,,,0,4,4,0,,,,,,,,125.40570629999274,126.28177810000489,0.8760718000121415,,,,5,130.99599379999563,right,1,0.8445267000352032,,,,,,,,,negar,2023-07-18_12h41.56.484,Rewa's Exp,2023.1.2,59.96857646402143,
Countdown_2.5s.mp4,green,red,left,Countdown_2.5s.jpg,0,0,0,0,,,,,0,5,5,4,,,,,,,,130.21312540001236,130.91511170001468,0.7019863000023179,,,,6,135.8034093999886,left,1,0.6773451000335626,,,,,,,,,negar,2023-07-18_12h41.56.484,Rewa's Exp,2023.1.2,59.96857646402143,
Countdown_2s.mp4,red,green,right,Countdown_2s.jpg,0,0,0,0,,,,,,,,,0,0,0,1,,,,134.64223930001026,135.36508209997555,0.7228427999652922,,,,4,,,,,left,0,0.6972420000238344,,,,,,negar,2023-07-18_12h41.56.484,Rewa's Exp,2023.1.2,59.96857646402143,
Countdown_2.5s.mp4,green,red,left,Countdown_2.5s.jpg,0,0,0,0,,,,,,,,,0,1,1,4,,,,139.28597349999472,140.08368879999034,0.7977152999956161,,,,2,,,,,right,0,0.7816984999808483,,,,,,negar,2023-07-18_12h41.56.484,Rewa's Exp,2023.1.2,59.96857646402143,
Countdown_1.5s.mp4,red,green,right,Countdown_1.5s.jpg,0,0,0,0,,,,,,,,,0,2,2,2,,,,144.0562181000132,144.88193789997604,0.8257197999628261,,,,0,,,,,left,0,0.7939559999504127,,,,,,negar,2023-07-18_12h41.56.484,Rewa's Exp,2023.1.2,59.96857646402143,
Countdown_2.5s.mp4,red,green,right,Countdown_2.5s.jpg,0,0,0,0,,,,,,,,,0,3,3,0,,,,148.82359689997975,149.69874490000075,0.8751480000209995,,,,-2,,,,,left,0,0.8432426999788731,,,,,,negar,2023-07-18_12h41.56.484,Rewa's Exp,2023.1.2,59.96857646402143,
Countdown_1.5s.mp4,green,red,left,Countdown_1.5s.jpg,0,0,0,0,,,,,,,,,0,4,4,3,,,,153.63272980001057,154.58219560002908,0.9494658000185154,,,,-4,,,,,right,0,0.931207399989944,,,,,,negar,2023-07-18_12h41.56.484,Rewa's Exp,2023.1.2,59.96857646402143,
Countdown_2s.mp4,green,red,left,Countdown_2s.jpg,0,0,0,0,,,,,,,,,0,5,5,5,,,,158.526280399994,159.29870280000614,0.7724224000121467,,,,-3,,,,,left,1,0.7493607999640517,,,,,,negar,2023-07-18_12h41.56.484,Rewa's Exp,2023.1.2,59.96857646402143,
,,,,,0,0,0,0,,,,,,,,,,,,,,,,,,,,,,,,,,,,,,166.02011769998353,166.02011769998353,166.02011769998353,space,1.6533752999966964,negar,2023-07-18_12h41.56.484,Rewa's Exp,2023.1.2,59.96857646402143,
Countdown_2.5s.mp4,green,red,left,Countdown_2.5s.jpg,1,0,1,0,0,0,0,4,,,,,,,,,,,,164.90610269998433,165.6652860000031,0.7591833000187762,left,1,0.7287415000027977,-2,,,,,,,,,,,,,negar,2023-07-18_12h41.56.484,Rewa's Exp,2023.1.2,59.96857646402143,
Countdown_1.5s.mp4,green,red,left,Countdown_1.5s.jpg,1,0,1,0,0,1,1,3,,,,,,,,,,,,169.58225899998797,170.5985005000257,1.0162415000377223,left,1,0.9897940999944694,-1,,,,,,,,,,,,,negar,2023-07-18_12h41.56.484,Rewa's Exp,2023.1.2,59.96857646402143,
Countdown_2s.mp4,red,green,right,Countdown_2s.jpg,1,0,1,0,0,2,2,1,,,,,,,,,,,,174.5033923999872,175.73192039999412,1.2285280000069179,left,0,1.1966162999742664,-3,,,,,,,,,,,,,negar,2023-07-18_12h41.56.484,Rewa's Exp,2023.1.2,59.96857646402143,
Countdown_1.5s.mp4,red,green,right,Countdown_1.5s.jpg,1,0,1,0,0,3,3,2,,,,,,,,,,,,179.66972379997605,180.46531920001144,0.7955954000353813,right,1,0.764940100023523,-2,,,,,,,,,,,,,negar,2023-07-18_12h41.56.484,Rewa's Exp,2023.1.2,59.96857646402143,
Countdown_2s.mp4,green,red,left,Countdown_2s.jpg,1,0,1,0,0,4,4,5,,,,,,,,,,,,184.43142989999615,186.01514720002888,1.5837173000327311,right,0,1.5557370000169612,-4,,,,,,,,,,,,,negar,2023-07-18_12h41.56.484,Rewa's Exp,2023.1.2,59.96857646402143,
Countdown_2.5s.mp4,red,green,right,Countdown_2.5s.jpg,1,0,1,0,0,5,5,0,,,,,,,,,,,,189.90384139999514,190.76527540001553,0.8614340000203811,right,1,0.8356245000031777,-3,,,,,,,,,,,,,negar,2023-07-18_12h41.56.484,Rewa's Exp,2023.1.2,59.96857646402143,
Countdown_1.5s.mp4,red,green,right,Countdown_1.5s.jpg,1,0,1,0,,,,,0,0,0,2,,,,,,,,194.6638169999933,195.6986796000274,1.0348626000341028,,,,-2,200.25410459999694,right,1,1.010625599999912,,,,,,,,,negar,2023-07-18_12h41.56.484,Rewa's Exp,2023.1.2,59.96857646402143,
Countdown_2s.mp4,green,red,left,Countdown_2s.jpg,1,0,1,0,,,,,0,1,1,5,,,,,,,,199.66835669998545,200.93168660002993,1.2633299000444822,,,,-1,205.25863769999705,left,1,1.2389531999942847,,,,,,,,,negar,2023-07-18_12h41.56.484,Rewa's Exp,2023.1.2,59.96857646402143,
Countdown_2s.mp4,red,green,right,Countdown_2s.jpg,1,0,1,0,,,,,0,2,2,1,,,,,,,,204.83744580001803,206.54905869998038,1.711612899962347,,,,-3,210.42771710001398,left,0,1.6939178999746218,,,,,,,,,negar,2023-07-18_12h41.56.484,Rewa's Exp,2023.1.2,59.96857646402143,
Countdown_2.5s.mp4,red,green,right,Countdown_2.5s.jpg,1,0,1,0,,,,,0,3,3,0,,,,,,,,210.4851762999897,212.54869269998744,2.063516399997752,,,,-2,216.07546339998953,right,1,2.0462261000066064,,,,,,,,,negar,2023-07-18_12h41.56.484,Rewa's Exp,2023.1.2,59.96857646402143,
Countdown_2.5s.mp4,green,red,left,Countdown_2.5s.jpg,1,0,1,0,,,,,0,4,4,4,,,,,,,,216.44219039997552,218.4150613999809,1.972871000005398,,,,-1,222.03247019997798,left,1,1.9524581999867223,,,,,,,,,negar,2023-07-18_12h41.56.484,Rewa's Exp,2023.1.2,59.96857646402143,
Countdown_1.5s.mp4,green,red,left,Countdown_1.5s.jpg,1,0,1,0,,,,,0,5,5,3,,,,,,,,222.37193959997967,223.74850520002656,1.376565600046888,,,,0,227.96223020000616,left,1,1.3518333000247367,,,,,,,,,negar,2023-07-18_12h41.56.484,Rewa's Exp,2023.1.2,59.96857646402143,
Countdown_2.5s.mp4,red,green,right,Countdown_2.5s.jpg,1,0,1,0,,,,,,,,,0,0,0,0,,,,227.65843660000246,229.76525749999564,2.1068208999931812,,,,1,,,,,right,1,2.0894592000404373,,,,,,negar,2023-07-18_12h41.56.484,Rewa's Exp,2023.1.2,59.96857646402143,
Countdown_2s.mp4,green,red,left,Countdown_2s.jpg,1,0,1,0,,,,,,,,,0,1,1,5,,,,233.6659933999763,235.61526739998953,1.9492740000132471,,,,2,,,,,left,1,1.921243900025729,,,,,,negar,2023-07-18_12h41.56.484,Rewa's Exp,2023.1.2,59.96857646402143,
Countdown_2s.mp4,red,green,right,Countdown_2s.jpg,1,0,1,0,,,,,,,,,0,2,2,1,,,,239.5568017999758,241.33186660002684,1.775064800051041,,,,3,,,,,right,1,1.7435649000108242,,,,,,negar,2023-07-18_12h41.56.484,Rewa's Exp,2023.1.2,59.96857646402143,
Countdown_2.5s.mp4,green,red,left,Countdown_2.5s.jpg,1,0,1,0,,,,,,,,,0,3,3,4,,,,245.21764230000554,247.48204249999253,2.2644001999869943,,,,1,,,,,right,0,2.240702399984002,,,,,,negar,2023-07-18_12h41.56.484,Rewa's Exp,2023.1.2,59.96857646402143,
Countdown_1.5s.mp4,red,green,right,Countdown_1.5s.jpg,1,0,1,0,,,,,,,,,0,4,4,2,,,,251.3966357000172,252.7487343000248,1.3520986000075936,,,,2,,,,,right,1,1.3349063000059687,,,,,,negar,2023-07-18_12h41.56.484,Rewa's Exp,2023.1.2,59.96857646402143,
Countdown_1.5s.mp4,green,red,left,Countdown_1.5s.jpg,1,0,1,0,,,,,,,,,0,5,5,3,,,,256.6702934000059,257.9485543000046,1.2782608999987133,,,,3,,,,,left,1,1.2454628000268713,,,,,,negar,2023-07-18_12h41.56.484,Rewa's Exp,2023.1.2,59.96857646402143,
,,,,,1,0,1,0,,,,,,,,,,,,,,,,,,,,,,,,,,,,,,264.68316700001014,264.68316700001014,264.68316700001014,space,2.5021810999605805,negar,2023-07-18_12h41.56.484,Rewa's Exp,2023.1.2,59.96857646402143,
Countdown_2s.mp4,red,green,right,Countdown_2s.jpg,2,0,2,0,0,0,0,1,,,,,,,,,,,,264.4372108000098,266.2987130000256,1.8615022000158206,right,1,1.8371745999902487,4,,,,,,,,,,,,,negar,2023-07-18_12h41.56.484,Rewa's Exp,2023.1.2,59.96857646402143,
Countdown_1.5s.mp4,red,green,right,Countdown_1.5s.jpg,2,0,2,0,0,1,1,2,,,,,,,,,,,,270.188235300011,271.61541899997974,1.4271836999687366,left,0,1.3995955000282265,2,,,,,,,,,,,,,negar,2023-07-18_12h41.56.484,Rewa's Exp,2023.1.2,59.96857646402143,
Countdown_2.5s.mp4,green,red,left,Countdown_2.5s.jpg,2,0,2,0,0,2,2,4,,,,,,,,,,,,275.5568957999931,277.66522279998753,2.1083269999944605,left,1,2.086408700037282,3,,,,,,,,,,,,,negar,2023-07-18_12h41.56.484,Rewa's Exp,2023.1.2,59.96857646402143,
Countdown_2.5s.mp4,red,green,right,Countdown_2.5s.jpg,2,0,2,0,0,3,3,0,,,,,,,,,,,,281.598886199994,283.848707200028,2.2498210000339895,right,1,2.2197791999788024,4,,,,,,,,,,,,,negar,2023-07-18_12h41.56.484,Rewa's Exp,2023.1.2,59.96857646402143,
Countdown_2s.mp4,green,red,left,Countdown_2s.jpg,2,0,2,0,0,4,4,5,,,,,,,,,,,,287.757749899989,289.73196529998677,1.9742153999977745,left,1,1.958456499967724,5,,,,,,,,,,,,,negar,2023-07-18_12h41.56.484,Rewa's Exp,2023.1.2,59.96857646402143,
Countdown_1.5s.mp4,green,red,left,Countdown_1.5s.jpg,2,0,2,0,0,5,5,3,,,,,,,,,,,,293.680733199988,295.1653013000032,1.4845681000151671,None,0,,3,,,,,,,,,,,,,negar,2023-07-18_12h41.56.484,Rewa's Exp,2023.1.2,59.96857646402143,
Countdown_1.5s.mp4,red,green,right,Countdown_1.5s.jpg,2,0,2,0,,,,,0,0,0,2,,,,,,,,299.09781760000624,300.53223230002914,1.4344147000228986,,,,4,304.68810400000075,right,1,1.4175260000047274,,,,,,,,,negar,2023-07-18_12h41.56.484,Rewa's Exp,2023.1.2,59.96857646402143,
Countdown_2s.mp4,green,red,left,Countdown_2s.jpg,2,0,2,0,,,,,0,1,1,5,,,,,,,,304.46574319998035,306.2155948000145,1.7498516000341624,,,,5,310.0560325999977,left,1,1.7220659999875352,,,,,,,,,negar,2023-07-18_12h41.56.484,Rewa's Exp,2023.1.2,59.96857646402143,
Countdown_1.5s.mp4,green,red,left,Countdown_1.5s.jpg,2,0,2,0,,,,,0,2,2,3,,,,,,,,310.1393449000316,311.63409639999736,1.494751499965787,,,,6,315.72963339998387,left,1,1.4881637999787927,,,,,,,,,negar,2023-07-18_12h41.56.484,Rewa's Exp,2023.1.2,59.96857646402143,
Countdown_2.5s.mp4,red,green,right,Countdown_2.5s.jpg,2,0,2,0,,,,,0,3,3,0,,,,,,,,315.5848371000029,317.74857659998816,2.1637394999852404,,,,7,321.1751163000008,right,1,2.146575800026767,,,,,,,,,negar,2023-07-18_12h41.56.484,Rewa's Exp,2023.1.2,59.96857646402143,
Countdown_2s.mp4,red,green,right,Countdown_2s.jpg,2,0,2,0,,,,,0,4,4,1,,,,,,,,321.67140659998404,323.5678966999985,1.8964901000144891,,,,8,327.2616798999952,right,1,1.8446258000331,,,,,,,,,negar,2023-07-18_12h41.56.484,Rewa's Exp,2023.1.2,59.96857646402143,
Countdown_2.5s.mp4,green,red,left,Countdown_2.5s.jpg,2,0,2,0,,,,,0,5,5,4,,,,,,,,327.46020179998595,329.78205500001786,2.32185320003191,,,,9,333.0504910000018,left,1,2.295337399991695,,,,,,,,,negar,2023-07-18_12h41.56.484,Rewa's Exp,2023.1.2,59.96857646402143,
Countdown_1.5s.mp4,red,green,right,Countdown_1.5s.jpg,2,0,2,0,,,,,,,,,0,0,0,2,,,,333.729651200003,335.21548529999563,1.485834099992644,,,,7,,,,,None,0,,,,,,,negar,2023-07-18_12h41.56.484,Rewa's Exp,2023.1.2,59.96857646402143,
Countdown_1.5s.mp4,green,red,left,Countdown_1.5s.jpg,2,0,2,0,,,,,,,,,0,1,1,3,,,,339.12429429998156,340.6156656999956,1.4913714000140317,,,,5,,,,,right,0,1.477994300017599,,,,,,negar,2023-07-18_12h41.56.484,Rewa's Exp,2023.1.2,59.96857646402143,
Countdown_2.5s.mp4,green,red,left,Countdown_2.5s.jpg,2,0,2,0,,,,,,,,,0,2,2,4,,,,344.56853280001087,346.36553569999523,1.7970028999843635,,,,6,,,,,left,1,1.7704644000041299,,,,,,negar,2023-07-18_12h41.56.484,Rewa's Exp,2023.1.2,59.96857646402143,
Countdown_2.5s.mp4,red,green,right,Countdown_2.5s.jpg,2,0,2,0,,,,,,,,,0,3,3,0,,,,350.2845579999848,352.2656038000132,1.9810458000283688,,,,7,,,,,right,1,1.9580589999677613,,,,,,negar,2023-07-18_12h41.56.484,Rewa's Exp,2023.1.2,59.96857646402143,
Countdown_2s.mp4,green,red,left,Countdown_2s.jpg,2,0,2,0,,,,,,,,,0,4,4,5,,,,356.14419989997987,357.91560210002353,1.771402200043667,,,,8,,,,,left,1,1.7393981000059284,,,,,,negar,2023-07-18_12h41.56.484,Rewa's Exp,2023.1.2,59.96857646402143,
Countdown_2s.mp4,red,green,right,Countdown_2s.jpg,2,0,2,0,,,,,,,,,0,5,5,1,,,,361.8664088000078,363.4321979000233,1.565789100015536,,,,9,,,,,right,1,1.537046699959319,,,,,,negar,2023-07-18_12h41.56.484,Rewa's Exp,2023.1.2,59.96857646402143,
,,,,,2,0,2,0,,,,,,,,,,,,,,,,,,,,,,,,,,,,,,370.16667629999574,370.16667629999574,370.16667629999574,space,1.7158217999967746,negar,2023-07-18_12h41.56.484,Rewa's Exp,2023.1.2,59.96857646402143,
Countdown_2s.mp4,red,green,right,Countdown_2s.jpg,3,0,3,0,0,0,0,1,,,,,,,,,,,,369.11136839998653,370.83201790001476,1.7206495000282302,right,1,1.7003261999925599,10,,,,,,,,,,,,,negar,2023-07-18_12h41.56.484,Rewa's Exp,2023.1.2,59.96857646402143,
Countdown_2.5s.mp4,green,red,left,Countdown_2.5s.jpg,3,0,3,0,0,1,1,4,,,,,,,,,,,,374.7594655000139,376.69873200001894,1.9392665000050329,left,1,1.9164005999919027,11,,,,,,,,,,,,,negar,2023-07-18_12h41.56.484,Rewa's Exp,2023.1.2,59.96857646402143,
Countdown_2s.mp4,green,red,left,Countdown_2s.jpg,3,0,3,0,0,2,2,5,,,,,,,,,,,,380.59477860003244,382.24885779997567,1.6540791999432258,left,1,1.6329136000131257,12,,,,,,,,,,,,,negar,2023-07-18_12h41.56.484,Rewa's Exp,2023.1.2,59.96857646402143,
Countdown_1.5s.mp4,red,green,right,Countdown_1.5s.jpg,3,0,3,0,0,3,3,2,,,,,,,,,,,,386.14844670001185,387.3322293999954,1.183782699983567,right,1,1.160005400015507,13,,,,,,,,,,,,,negar,2023-07-18_12h41.56.484,Rewa's Exp,2023.1.2,59.96857646402143,
Countdown_2.5s.mp4,red,green,right,Countdown_2.5s.jpg,3,0,3,0,0,4,4,0,,,,,,,,,,,,391.22773049998796,393.3320859000087,2.1043554000207223,right,1,2.087136999994982,14,,,,,,,,,,,,,negar,2023-07-18_12h41.56.484,Rewa's Exp,2023.1.2,59.96857646402143,
Countdown_1.5s.mp4,green,red,left,Countdown_1.5s.jpg,3,0,3,0,0,5,5,3,,,,,,,,,,,,397.2650300000096,398.5656462999759,1.3006162999663502,left,1,1.282629499968607,15,,,,,,,,,,,,,negar,2023-07-18_12h41.56.484,Rewa's Exp,2023.1.2,59.96857646402143,
Countdown_1.5s.mp4,green,red,left,Countdown_1.5s.jpg,3,0,3,0,,,,,0,0,0,3,,,,,,,,402.4875234999927,403.8156308999751,1.3281073999824002,,,,16,408.07777119998354,left,1,1.2989467000006698,,,,,,,,,negar,2023-07-18_12h41.56.484,Rewa's Exp,2023.1.2,59.96857646402143,
Countdown_1.5s.mp4,red,green,right,Countdown_1.5s.jpg,3,0,3,0,,,,,0,1,1,2,,,,,,,,407.7629329999909,409.14883810002357,1.3859051000326872,,,,17,413.3532051999937,right,1,1.3596215000143275,,,,,,,,,negar,2023-07-18_12h41.56.484,Rewa's Exp,2023.1.2,59.96857646402143,
Countdown_2s.mp4,red,green,right,Countdown_2s.jpg,3,0,3,0,,,,,0,2,2,1,,,,,,,,413.0950348000042,414.91588099999353,1.8208461999893188,,,,18,418.68451990000904,right,1,1.7985016999882646,,,,,,,,,negar,2023-07-18_12h41.56.484,Rewa's Exp,2023.1.2,59.96857646402143,
Countdown_2s.mp4,green,red,left,Countdown_2s.jpg,3,0,3,0,,,,,0,3,3,5,,,,,,,,418.84198820003076,420.63264909997815,1.7906608999473974,,,,19,424.43226380000124,left,1,1.7693608999834396,,,,,,,,,negar,2023-07-18_12h41.56.484,Rewa's Exp,2023.1.2,59.96857646402143,
Countdown_2.5s.mp4,green,red,left,Countdown_2.5s.jpg,3,0,3,0,,,,,0,4,4,4,,,,,,,,424.545969400031,426.46553290000884,1.9195634999778122,,,,20,430.1362441999954,left,1,1.8889268999919295,,,,,,,,,negar,2023-07-18_12h41.56.484,Rewa's Exp,2023.1.2,59.96857646402143,
Countdown_2.5s.mp4,red,green,right,Countdown_2.5s.jpg,3,0,3,0,,,,,0,5,5,0,,,,,,,,430.3993097000057,432.28227600001264,1.8829663000069559,,,,21,435.9896059000166,right,1,1.851506299979519,,,,,,,,,negar,2023-07-18_12h41.56.484,Rewa's Exp,2023.1.2,59.96857646402143,
Countdown_2.5s.mp4,red,green,right,Countdown_2.5s.jpg,3,0,3,0,,,,,,,,,0,0,0,0,,,,436.217269100016,438.2494618999772,2.0321927999611944,,,,22,,,,,right,1,2.0100645999773405,,,,,,negar,2023-07-18_12h41.56.484,Rewa's Exp,2023.1.2,59.96857646402143,
Countdown_2s.mp4,red,green,right,Countdown_2s.jpg,3,0,3,0,,,,,,,,,0,1,1,1,,,,442.18739769997774,443.915653700009,1.7282560000312515,,,,23,,,,,right,1,1.7050191999878734,,,,,,negar,2023-07-18_12h41.56.484,Rewa's Exp,2023.1.2,59.96857646402143,
Countdown_2s.mp4,green,red,left,Countdown_2s.jpg,3,0,3,0,,,,,,,,,0,2,2,5,,,,447.82685200002743,449.4322717000032,1.605419699975755,,,,21,,,,,right,0,1.5857462999993004,,,,,,negar,2023-07-18_12h41.56.484,Rewa's Exp,2023.1.2,59.96857646402143,
Countdown_1.5s.mp4,red,green,right,Countdown_1.5s.jpg,3,0,3,0,,,,,,,,,0,3,3,2,,,,453.3384745999938,454.73248589999275,1.3940112999989651,,,,19,,,,,left,0,1.369931599998381,,,,,,negar,2023-07-18_12h41.56.484,Rewa's Exp,2023.1.2,59.96857646402143,
Countdown_2.5s.mp4,green,red,left,Countdown_2.5s.jpg,3,0,3,0,,,,,,,,,0,4,4,4,,,,458.71438279998256,460.63248510000994,1.9181023000273854,,,,17,,,,,right,0,1.8971860999590717,,,,,,negar,2023-07-18_12h41.56.484,Rewa's Exp,2023.1.2,59.96857646402143,
Countdown_1.5s.mp4,green,red,left,Countdown_1.5s.jpg,3,0,3,0,,,,,,,,,0,5,5,3,,,,464.54390290001174,466.0322769000195,1.4883740000077523,,,,18,,,,,left,1,1.4593324000015855,,,,,,negar,2023-07-18_12h41.56.484,Rewa's Exp,2023.1.2,59.96857646402143,
,,,,,3,0,3,0,,,,,,,,,,,,,,,,,,,,,,,,,,,,,,472.7669147999841,472.7669147999841,472.7669147999841,space,4.570237600011751,negar,2023-07-18_12h41.56.484,Rewa's Exp,2023.1.2,59.96857646402143,
Countdown_2.5s.mp4,red,green,right,Countdown_2.5s.jpg,4,0,4,0,0,0,0,0,,,,,,,,,,,,474.59282130002975,476.13283000001684,1.5400086999870837,right,1,1.5150307000149041,19,,,,,,,,,,,,,negar,2023-07-18_12h41.56.484,Rewa's Exp,2023.1.2,59.96857646402143,
Countdown_2s.mp4,green,red,left,Countdown_2s.jpg,4,0,4,0,0,1,1,5,,,,,,,,,,,,480.0274993000203,481.64902260003146,1.6215233000111766,left,1,1.5915340000065044,20,,,,,,,,,,,,,negar,2023-07-18_12h41.56.484,Rewa's Exp,2023.1.2,59.96857646402143,
Countdown_2.5s.mp4,green,red,left,Countdown_2.5s.jpg,4,0,4,0,0,2,2,4,,,,,,,,,,,,485.53772349999053,487.7662882999866,2.228564799996093,left,1,2.210782299982384,21,,,,,,,,,,,,,negar,2023-07-18_12h41.56.484,Rewa's Exp,2023.1.2,59.96857646402143,
Countdown_1.5s.mp4,red,green,right,Countdown_1.5s.jpg,4,0,4,0,0,3,3,2,,,,,,,,,,,,491.70047059998615,493.1489430000074,1.4484724000212736,right,1,1.4308656999492086,22,,,,,,,,,,,,,negar,2023-07-18_12h41.56.484,Rewa's Exp,2023.1.2,59.96857646402143,
Countdown_2s.mp4,red,green,right,Countdown_2s.jpg,4,0,4,0,0,4,4,1,,,,,,,,,,,,497.0712152000051,498.9156808999833,1.8444656999781728,right,1,1.8119435000116937,23,,,,,,,,,,,,,negar,2023-07-18_12h41.56.484,Rewa's Exp,2023.1.2,59.96857646402143,
Countdown_1.5s.mp4,green,red,left,Countdown_1.5s.jpg,4,0,4,0,0,5,5,3,,,,,,,,,,,,502.844327000028,503.932507599995,1.0881805999670178,left,1,1.0708691999898292,24,,,,,,,,,,,,,negar,2023-07-18_12h41.56.484,Rewa's Exp,2023.1.2,59.96857646402143,
Countdown_1.5s.mp4,green,red,left,Countdown_1.5s.jpg,4,0,4,0,,,,,0,0,0,3,,,,,,,,507.8641755999997,509.2325494000106,1.368373800010886,,,,25,513.4544462999911,left,1,1.3484873999841511,,,,,,,,,negar,2023-07-18_12h41.56.484,Rewa's Exp,2023.1.2,59.96857646402143,
Countdown_2.5s.mp4,green,red,left,Countdown_2.5s.jpg,4,0,4,0,,,,,0,1,1,4,,,,,,,,513.1394199000206,515.2325054000248,2.0930855000042357,,,,23,518.7297132000094,right,0,2.07279759994708,,,,,,,,,negar,2023-07-18_12h41.56.484,Rewa's Exp,2023.1.2,59.96857646402143,
Countdown_2s.mp4,green,red,left,Countdown_2s.jpg,4,0,4,0,,,,,0,2,2,5,,,,,,,,519.1386597999954,520.9991405000328,1.8604807000374421,,,,24,524.7289666999714,left,1,1.833640800032299,,,,,,,,,negar,2023-07-18_12h41.56.484,Rewa's Exp,2023.1.2,59.96857646402143,
Countdown_1.5s.mp4,red,green,right,Countdown_1.5s.jpg,4,0,4,0,,,,,0,3,3,2,,,,,,,,524.9049654999981,526.1993705999921,1.2944050999940373,,,,25,530.4952321000164,right,1,1.265710899955593,,,,,,,,,negar,2023-07-18_12h41.56.484,Rewa's Exp,2023.1.2,59.96857646402143,
Countdown_2.5s.mp4,red,green,right,Countdown_2.5s.jpg,4,0,4,0,,,,,0,4,4,0,,,,,,,,530.1036728000036,532.2992210999946,2.19554829999106,,,,26,535.6939708999707,right,1,2.1635843999683857,,,,,,,,,negar,2023-07-18_12h41.56.484,Rewa's Exp,2023.1.2,59.96857646402143,
Countdown_2s.mp4,red,green,right,Countdown_2s.jpg,4,0,4,0,,,,,0,5,5,1,,,,,,,,536.218428799999,538.0157587000285,1.797329900029581,,,,27,541.8087190000224,right,1,1.7777126000146382,,,,,,,,,negar,2023-07-18_12h41.56.484,Rewa's Exp,2023.1.2,59.96857646402143,
Countdown_2s.mp4,green,red,left,Countdown_2s.jpg,4,0,4,0,,,,,,,,,0,0,0,5,,,,541.9431063000229,543.7329001000035,1.7897937999805436,,,,28,,,,,left,1,1.7568861999898218,,,,,,negar,2023-07-18_12h41.56.484,Rewa's Exp,2023.1.2,59.96857646402143,
Countdown_1.5s.mp4,red,green,right,Countdown_1.5s.jpg,4,0,4,0,,,,,,,,,0,1,1,2,,,,547.6628173000063,549.049107400002,1.3862900999956764,,,,29,,,,,right,1,1.3564439000329003,,,,,,negar,2023-07-18_12h41.56.484,Rewa's Exp,2023.1.2,59.96857646402143,
Countdown_2.5s.mp4,green,red,left,Countdown_2.5s.jpg,4,0,4,0,,,,,,,,,0,2,2,4,,,,552.9482140000327,555.0161359999911,2.067921999958344,,,,30,,,,,left,1,2.0484586999518797,,,,,,negar,2023-07-18_12h41.56.484,Rewa's Exp,2023.1.2,59.96857646402143,
Countdown_2.5s.mp4,red,green,right,Countdown_2.5s.jpg,4,0,4,0,,,,,,,,,0,3,3,0,,,,558.9311675999779,561.082819800009,2.1516522000310943,,,,31,,,,,right,1,2.1197735999594443,,,,,,negar,2023-07-18_12h41.56.484,Rewa's Exp,2023.1.2,59.96857646402143,
Countdown_1.5s.mp4,green,red,left,Countdown_1.5s.jpg,4,0,4,0,,,,,,,,,0,4,4,3,,,,565.0042905000155,566.4324693999952,1.4281788999796845,,,,32,,,,,left,1,1.4077218999736942,,,,,,negar,2023-07-18_12h41.56.484,Rewa's Exp,2023.1.2,59.96857646402143,
Countdown_2s.mp4,red,green,right,Countdown_2s.jpg,4,0,4,0,,,,,,,,,0,5,5,1,,,,570.3816049000015,572.3492445999873,1.9676396999857388,,,,33,,,,,right,1,1.9585602999432012,,,,,,negar,2023-07-18_12h41.56.484,Rewa's Exp,2023.1.2,59.96857646402143,
,,,,,4,0,4,0,,,,,,,,,,,,,,,,,,,,,,,,,,,,,,579.0837380000157,579.0837380000157,579.0837380000157,space,6.549123899952974,negar,2023-07-18_12h41.56.484,Rewa's Exp,2023.1.2,59.96857646402143,
Countdown_1.5s.mp4,green,red,left,Countdown_1.5s.jpg,5,0,5,0,0,0,0,3,,,,,,,,,,,,582.8233961000224,584.2158571000327,1.3924610000103712,right,0,1.363509899994824,31,,,,,,,,,,,,,negar,2023-07-18_12h41.56.484,Rewa's Exp,2023.1.2,59.96857646402143,
Countdown_2.5s.mp4,green,red,left,Countdown_2.5s.jpg,5,0,5,0,0,1,1,4,,,,,,,,,,,,588.1888791000238,589.5826617000275,1.3937826000037603,left,1,1.3656473999726586,32,,,,,,,,,,,,,negar,2023-07-18_12h41.56.484,Rewa's Exp,2023.1.2,59.96857646402143,
Countdown_2.5s.mp4,red,green,right,Countdown_2.5s.jpg,5,0,5,0,0,2,2,0,,,,,,,,,,,,593.5078178999829,595.2999065999757,1.7920886999927461,right,1,1.7591614000266418,33,,,,,,,,,,,,,negar,2023-07-18_12h41.56.484,Rewa's Exp,2023.1.2,59.96857646402143,
Countdown_2s.mp4,red,green,right,Countdown_2s.jpg,5,0,5,0,0,3,3,1,,,,,,,,,,,,599.2280431999825,600.8825721000321,1.6545289000496268,right,1,1.6226078000036068,34,,,,,,,,,,,,,negar,2023-07-18_12h41.56.484,Rewa's Exp,2023.1.2,59.96857646402143,
Countdown_1.5s.mp4,red,green,right,Countdown_1.5s.jpg,5,0,5,0,0,4,4,2,,,,,,,,,,,,604.7873027999885,606.0660242000013,1.2787214000127278,right,1,1.2478103999746963,35,,,,,,,,,,,,,negar,2023-07-18_12h41.56.484,Rewa's Exp,2023.1.2,59.96857646402143,
Countdown_2s.mp4,green,red,left,Countdown_2s.jpg,5,0,5,0,0,5,5,5,,,,,,,,,,,,610.0008440000238,611.433088699996,1.432244699972216,left,1,1.4026695999782532,36,,,,,,,,,,,,,negar,2023-07-18_12h41.56.484,Rewa's Exp,2023.1.2,59.96857646402143,
Countdown_1.5s.mp4,red,green,right,Countdown_1.5s.jpg,5,0,5,0,,,,,0,0,0,2,,,,,,,,615.3739258000278,616.8664825999876,1.492556799959857,,,,37,620.9642397999996,right,1,1.4771251999773085,,,,,,,,,negar,2023-07-18_12h41.56.484,Rewa's Exp,2023.1.2,59.96857646402143,
Countdown_2s.mp4,green,red,left,Countdown_2s.jpg,5,0,5,0,,,,,0,1,1,5,,,,,,,,620.799542599998,622.499589700019,1.7000471000210382,,,,38,626.3897953999694,left,1,1.6674479999928735,,,,,,,,,negar,2023-07-18_12h41.56.484,Rewa's Exp,2023.1.2,59.96857646402143,
Countdown_2.5s.mp4,red,green,right,Countdown_2.5s.jpg,5,0,5,0,,,,,0,2,2,0,,,,,,,,626.3794179999968,628.5668611000292,2.1874431000323966,,,,36,631.9696853000205,left,0,2.1593763999990188,,,,,,,,,negar,2023-07-18_12h41.56.484,Rewa's Exp,2023.1.2,59.96857646402143,
Countdown_2.5s.mp4,green,red,left,Countdown_2.5s.jpg,5,0,5,0,,,,,0,3,3,4,,,,,,,,632.4320018999861,634.6665417000186,2.2345398000325076,,,,37,638.0222601999994,left,1,2.203618500032462,,,,,,,,,negar,2023-07-18_12h41.56.484,Rewa's Exp,2023.1.2,59.96857646402143,
Countdown_1.5s.mp4,green,red,left,Countdown_1.5s.jpg,5,0,5,0,,,,,0,4,4,3,,,,,,,,638.6129124999861,639.9324788000085,1.3195663000224158,,,,38,644.2032404000056,left,1,1.302351100021042,,,,,,,,,negar,2023-07-18_12h41.56.484,Rewa's Exp,2023.1.2,59.96857646402143,
Countdown_2s.mp4,red,green,right,Countdown_2s.jpg,5,0,5,0,,,,,0,5,5,1,,,,,,,,643.8478682999848,645.7493090999778,1.9014407999929972,,,,39,649.4381534999702,right,1,1.8831502000102773,,,,,,,,,negar,2023-07-18_12h41.56.484,Rewa's Exp,2023.1.2,59.96857646402143,
Countdown_2.5s.mp4,red,green,right,Countdown_2.5s.jpg,5,0,5,0,,,,,,,,,0,0,0,0,,,,649.6787278000265,651.916100100032,2.237372300005518,,,,40,,,,,right,1,2.220220100018196,,,,,,negar,2023-07-18_12h41.56.484,Rewa's Exp,2023.1.2,59.96857646402143,
Countdown_2s.mp4,red,green,right,Countdown_2s.jpg,5,0,5,0,,,,,,,,,0,1,1,1,,,,655.835152100015,657.4993363000103,1.6641841999953613,,,,41,,,,,right,1,1.640495200001169,,,,,,negar,2023-07-18_12h41.56.484,Rewa's Exp,2023.1.2,59.96857646402143,
Countdown_1.5s.mp4,red,green,right,Countdown_1.5s.jpg,5,0,5,0,,,,,,,,,0,2,2,2,,,,661.4375697000069,662.9159707999788,1.4784010999719612,,,,42,,,,,right,1,1.446035499975551,,,,,,negar,2023-07-18_12h41.56.484,Rewa's Exp,2023.1.2,59.96857646402143,
Countdown_2s.mp4,green,red,left,Countdown_2s.jpg,5,0,5,0,,,,,,,,,0,3,3,5,,,,666.8343077999889,668.5157772999955,1.6814695000066422,,,,43,,,,,left,1,1.6585144000127912,,,,,,negar,2023-07-18_12h41.56.484,Rewa's Exp,2023.1.2,59.96857646402143,
Countdown_1.5s.mp4,green,red,left,Countdown_1.5s.jpg,5,0,5,0,,,,,,,,,0,4,4,3,,,,672.4166690999991,673.7827816000208,1.3661125000216998,,,,44,,,,,left,1,1.347893500002101,,,,,,negar,2023-07-18_12h41.56.484,Rewa's Exp,2023.1.2,59.96857646402143,
Countdown_2.5s.mp4,green,red,left,Countdown_2.5s.jpg,5,0,5,0,,,,,,,,,0,5,5,4,,,,677.6828857000219,679.950086100027,2.2672004000050947,,,,45,,,,,left,1,2.2397490000003017,,,,,,negar,2023-07-18_12h41.56.484,Rewa's Exp,2023.1.2,59.96857646402143,
,,,,,5,0,5,0,,,,,,,,,,,,,,,,,,,,,,,,,,,,,,686.6508210999891,686.6508210999891,686.6508210999891,space,1.4060410999809392,negar,2023-07-18_12h41.56.484,Rewa's Exp,2023.1.2,59.96857646402143,
Countdown_2.5s.mp4,green,red,left,Countdown_2.5s.jpg,6,0,6,0,0,0,0,4,,,,,,,,,,,,685.2799334999872,687.4994950999971,2.2195616000099108,left,1,2.196309699967969,46,,,,,,,,,,,,,negar,2023-07-18_12h41.56.484,Rewa's Exp,2023.1.2,59.96857646402143,
Countdown_2s.mp4,red,green,right,Countdown_2s.jpg,6,0,6,0,0,1,1,1,,,,,,,,,,,,691.3983590999851,693.2993349999888,1.9009759000036865,right,1,1.877730599953793,47,,,,,,,,,,,,,negar,2023-07-18_12h41.56.484,Rewa's Exp,2023.1.2,59.96857646402143,
Countdown_2s.mp4,green,red,left,Countdown_2s.jpg,6,0,6,0,0,2,2,5,,,,,,,,,,,,697.2146497999784,699.1829367000028,1.9682869000243954,left,1,1.9569531999877654,48,,,,,,,,,,,,,negar,2023-07-18_12h41.56.484,Rewa's Exp,2023.1.2,59.96857646402143,
Countdown_1.5s.mp4,green,red,left,Countdown_1.5s.jpg,6,0,6,0,0,3,3,3,,,,,,,,,,,,703.0999101999914,704.532695700007,1.4327855000155978,left,1,1.4156833000015467,49,,,,,,,,,,,,,negar,2023-07-18_12h41.56.484,Rewa's Exp,2023.1.2,59.96857646402143,
Countdown_1.5s.mp4,red,green,right,Countdown_1.5s.jpg,6,0,6,0,0,4,4,2,,,,,,,,,,,,708.5005409999867,709.7661911000032,1.2656501000165008,right,1,1.2389583000331186,50,,,,,,,,,,,,,negar,2023-07-18_12h41.56.484,Rewa's Exp,2023.1.2,59.96857646402143,
Countdown_2.5s.mp4,red,green,right,Countdown_2.5s.jpg,6,0,6,0,0,5,5,0,,,,,,,,,,,,713.6490007999819,715.6830765000195,2.034075700037647,right,1,2.0017753000138327,51,,,,,,,,,,,,,negar,2023-07-18_12h41.56.484,Rewa's Exp,2023.1.2,59.96857646402143,
Countdown_2s.mp4,red,green,right,Countdown_2s.jpg,6,0,6,0,,,,,0,0,0,1,,,,,,,,719.5891278000199,721.3493639000226,1.7602361000026576,,,,52,725.179416399973,right,1,1.7350424999604002,,,,,,,,,negar,2023-07-18_12h41.56.484,Rewa's Exp,2023.1.2,59.96857646402143,
Countdown_1.5s.mp4,red,green,right,Countdown_1.5s.jpg,6,0,6,0,,,,,0,1,1,2,,,,,,,,725.2754473999958,726.5995487000328,1.3241013000370003,,,,53,730.8657302000211,right,1,1.3047148999758065,,,,,,,,,negar,2023-07-18_12h41.56.484,Rewa's Exp,2023.1.2,59.96857646402143,
Countdown_1.5s.mp4,green,red,left,Countdown_1.5s.jpg,6,0,6,0,,,,,0,2,2,3,,,,,,,,730.5127407999826,731.7328746999847,1.2201339000021107,,,,51,736.1029906999902,right,0,1.2031146999797784,,,,,,,,,negar,2023-07-18_12h41.56.484,Rewa's Exp,2023.1.2,59.96857646402143,
Countdown_2s.mp4,green,red,left,Countdown_2s.jpg,6,0,6,0,,,,,0,3,3,5,,,,,,,,735.631713300012,737.3833700999967,1.7516567999846302,,,,52,741.2219942000229,left,1,1.7249969000113197,,,,,,,,,negar,2023-07-18_12h41.56.484,Rewa's Exp,2023.1.2,59.96857646402143,
Countdown_2.5s.mp4,red,green,right,Countdown_2.5s.jpg,6,0,6,0,,,,,0,4,4,0,,,,,,,,741.3494370999979,743.0827951999963,1.7333580999984406,,,,53,746.9396987999789,right,1,1.7019098000018857,,,,,,,,,negar,2023-07-18_12h41.56.484,Rewa's Exp,2023.1.2,59.96857646402143,
Countdown_2.5s.mp4,green,red,left,Countdown_2.5s.jpg,6,0,6,0,,,,,0,5,5,4,,,,,,,,747.0334203999955,749.3163592999917,2.282938899996225,,,,54,752.6236482000095,left,1,2.250158899987582,,,,,,,,,negar,2023-07-18_12h41.56.484,Rewa's Exp,2023.1.2,59.96857646402143,
Countdown_1.5s.mp4,green,red,left,Countdown_1.5s.jpg,6,0,6,0,,,,,,,,,0,0,0,3,,,,753.2721168000135,754.7663137000054,1.4941968999919482,,,,52,,,,,right,0,1.467390899953898,,,,,,negar,2023-07-18_12h41.56.484,Rewa's Exp,2023.1.2,59.96857646402143,
Countdown_1.5s.mp4,red,green,right,Countdown_1.5s.jpg,6,0,6,0,,,,,,,,,0,1,1,2,,,,758.669355400023,759.9662417999934,1.29688639997039,,,,50,,,,,left,0,1.2779832999804057,,,,,,negar,2023-07-18_12h41.56.484,Rewa's Exp,2023.1.2,59.96857646402143,
Countdown_2s.mp4,green,red,left,Countdown_2s.jpg,6,0,6,0,,,,,,,,,0,2,2,5,,,,763.8660837999778,765.6997191000264,1.833635300048627,,,,51,,,,,left,1,1.8014123999746516,,,,,,negar,2023-07-18_12h41.56.484,Rewa's Exp,2023.1.2,59.96857646402143,
Countdown_2s.mp4,red,green,right,Countdown_2s.jpg,6,0,6,0,,,,,,,,,0,3,3,1,,,,769.6265940000303,771.5996348999906,1.9730408999603242,,,,52,,,,,right,1,1.944195399992168,,,,,,negar,2023-07-18_12h41.56.484,Rewa's Exp,2023.1.2,59.96857646402143,
Countdown_2.5s.mp4,red,green,right,Countdown_2.5s.jpg,6,0,6,0,,,,,,,,,0,4,4,0,,,,775.5600892999792,777.6497785000247,2.089689200045541,,,,50,,,,,left,0,2.059112200047821,,,,,,negar,2023-07-18_12h41.56.484,Rewa's Exp,2023.1.2,59.96857646402143,
Countdown_2.5s.mp4,green,red,left,Countdown_2.5s.jpg,6,0,6,0,,,,,,,,,0,5,5,4,,,,781.5990806000191,783.7162661000038,2.117185499984771,,,,48,,,,,right,0,2.08447659999365,,,,,,negar,2023-07-18_12h41.56.484,Rewa's Exp,2023.1.2,59.96857646402143,
,,,,,6,0,6,0,,,,,,,,,,,,,,,,,,,,,,,,,,,,,,790.4508377999882,790.4508377999882,790.4508377999882,space,1.3508589999983087,negar,2023-07-18_12h41.56.484,Rewa's Exp,2023.1.2,59.96857646402143,
Countdown_2s.mp4,green,red,left,Countdown_2s.jpg,7,0,7,0,0,0,0,5,,,,,,,,,,,,789.0215366000193,790.8495091000223,1.827972500002943,left,1,1.8061757999821566,49,,,,,,,,,,,,,negar,2023-07-18_12h41.56.484,Rewa's Exp,2023.1.2,59.96857646402143,
Countdown_2.5s.mp4,green,red,left,Countdown_2.5s.jpg,7,0,7,0,0,1,1,4,,,,,,,,,,,,794.7815342000104,797.0173471000162,2.2358129000058398,left,1,2.2054226999753155,50,,,,,,,,,,,,,negar,2023-07-18_12h41.56.484,Rewa's Exp,2023.1.2,59.96857646402143,
Countdown_1.5s.mp4,red,green,right,Countdown_1.5s.jpg,7,0,7,0,0,2,2,2,,,,,,,,,,,,800.9792022000183,802.2329093000153,1.2537070999969728,right,1,1.2322006999747828,51,,,,,,,,,,,,,negar,2023-07-18_12h41.56.484,Rewa's Exp,2023.1.2,59.96857646402143,
Countdown_2.5s.mp4,red,green,right,Countdown_2.5s.jpg,7,0,7,0,0,3,3,0,,,,,,,,,,,,806.1455871000071,808.3830406999914,2.237453599984292,right,1,2.209531700005755,52,,,,,,,,,,,,,negar,2023-07-18_12h41.56.484,Rewa's Exp,2023.1.2,59.96857646402143,
Countdown_2s.mp4,red,green,right,Countdown_2s.jpg,7,0,7,0,0,4,4,1,,,,,,,,,,,,812.3254374000244,814.0998439000105,1.7744064999860711,right,1,1.7515023000305519,53,,,,,,,,,,,,,negar,2023-07-18_12h41.56.484,Rewa's Exp,2023.1.2,59.96857646402143,
Countdown_1.5s.mp4,green,red,left,Countdown_1.5s.jpg,7,0,7,0,0,5,5,3,,,,,,,,,,,,818.0058854999952,819.4996096999967,1.4937242000014521,None,0,,51,,,,,,,,,,,,,negar,2023-07-18_12h41.56.484,Rewa's Exp,2023.1.2,59.96857646402143,
Countdown_1.5s.mp4,red,green,right,Countdown_1.5s.jpg,7,0,7,0,,,,,0,0,0,2,,,,,,,,823.4254802999785,824.6330132000148,1.2075329000363126,,,,52,829.0157028000103,right,1,1.1779966000467539,,,,,,,,,negar,2023-07-18_12h41.56.484,Rewa's Exp,2023.1.2,59.96857646402143,
Countdown_2s.mp4,red,green,right,Countdown_2s.jpg,7,0,7,0,,,,,0,1,1,1,,,,,,,,828.5383998000179,830.1831394000328,1.6447396000148728,,,,50,834.1286257000174,left,0,1.624891999992542,,,,,,,,,negar,2023-07-18_12h41.56.484,Rewa's Exp,2023.1.2,59.96857646402143,
Countdown_1.5s.mp4,green,red,left,Countdown_1.5s.jpg,7,0,7,0,,,,,0,2,2,3,,,,,,,,834.1083926000283,835.3002106000204,1.191817999992054,,,,51,839.6986601999961,left,1,1.1747314999811351,,,,,,,,,negar,2023-07-18_12h41.56.484,Rewa's Exp,2023.1.2,59.96857646402143,
Countdown_2.5s.mp4,red,green,right,Countdown_2.5s.jpg,7,0,7,0,,,,,0,3,3,0,,,,,,,,839.2330550000188,841.4666264000116,2.2335713999927975,,,,52,844.8233192000189,right,1,2.20178780000424,,,,,,,,,negar,2023-07-18_12h41.56.484,Rewa's Exp,2023.1.2,59.96857646402143,
Countdown_2.5s.mp4,green,red,left,Countdown_2.5s.jpg,7,0,7,0,,,,,0,4,4,4,,,,,,,,845.3961656999891,847.5164998000255,2.120334100036416,,,,53,850.9864234999986,left,1,2.0956646000267938,,,,,,,,,negar,2023-07-18_12h41.56.484,Rewa's Exp,2023.1.2,59.96857646402143,
Countdown_2s.mp4,green,red,left,Countdown_2s.jpg,7,0,7,0,,,,,0,5,5,5,,,,,,,,851.439116500027,853.1330783999874,1.6939618999604136,,,,54,857.0293508999748,left,1,1.6683174999780022,,,,,,,,,negar,2023-07-18_12h41.56.484,Rewa's Exp,2023.1.2,59.96857646402143,
Countdown_2.5s.mp4,green,red,left,Countdown_2.5s.jpg,7,0,7,0,,,,,,,,,0,0,0,4,,,,857.0648235999979,859.2331530000083,2.168329400010407,,,,52,,,,,right,0,2.146706899977289,,,,,,negar,2023-07-18_12h41.56.484,Rewa's Exp,2023.1.2,59.96857646402143,
Countdown_2s.mp4,red,green,right,Countdown_2s.jpg,7,0,7,0,,,,,,,,,0,1,1,1,,,,863.1524428999983,865.066651400004,1.9142085000057705,,,,53,,,,,right,1,1.883055999991484,,,,,,negar,2023-07-18_12h41.56.484,Rewa's Exp,2023.1.2,59.96857646402143,
Countdown_1.5s.mp4,red,green,right,Countdown_1.5s.jpg,7,0,7,0,,,,,,,,,0,2,2,2,,,,868.9968119999976,870.2331120999879,1.2363000999903306,,,,51,,,,,left,0,1.2063870999845676,,,,,,negar,2023-07-18_12h41.56.484,Rewa's Exp,2023.1.2,59.96857646402143,
Countdown_2.5s.mp4,red,green,right,Countdown_2.5s.jpg,7,0,7,0,,,,,,,,,0,3,3,0,,,,874.1378267999971,876.1835045000189,2.04567770002177,,,,52,,,,,right,1,2.0264819000149146,,,,,,negar,2023-07-18_12h41.56.484,Rewa's Exp,2023.1.2,59.96857646402143,
Countdown_1.5s.mp4,green,red,left,Countdown_1.5s.jpg,7,0,7,0,,,,,,,,,0,4,4,3,,,,880.0966494000168,881.4499026000267,1.3532532000099309,,,,53,,,,,left,1,1.3222759999916889,,,,,,negar,2023-07-18_12h41.56.484,Rewa's Exp,2023.1.2,59.96857646402143,
Countdown_2s.mp4,green,red,left,Countdown_2s.jpg,7,0,7,0,,,,,,,,,0,5,5,5,,,,885.4375136999879,886.9165889000287,1.4790752000408247,,,,51,,,,,right,0,1.4472189999651164,,,,,,negar,2023-07-18_12h41.56.484,Rewa's Exp,2023.1.2,59.96857646402143,
,,,,,7,0,7,0,,,,,,,,,,,,,,,,,,,,,,,,,,,,,,893.6511009999667,893.6511009999667,893.6511009999667,space,1.1582111999741755,negar,2023-07-18_12h41.56.484,Rewa's Exp,2023.1.2,59.96857646402143,
Countdown_2.5s.mp4,green,red,left,Countdown_2.5s.jpg,8,0,8,0,0,0,0,4,,,,,,,,,,,,892.0390687999898,893.3332859000075,1.294217100017704,left,1,1.2770147999981418,52,,,,,,,,,,,,,negar,2023-07-18_12h41.56.484,Rewa's Exp,2023.1.2,59.96857646402143,
Countdown_1.5s.mp4,green,red,left,Countdown_1.5s.jpg,8,0,8,0,0,1,1,3,,,,,,,,,,,,897.2418455000152,898.3998014000244,1.1579559000092559,left,1,1.1381852000486106,53,,,,,,,,,,,,,negar,2023-07-18_12h41.56.484,Rewa's Exp,2023.1.2,59.96857646402143,
Countdown_2.5s.mp4,red,green,right,Countdown_2.5s.jpg,8,0,8,0,0,2,2,0,,,,,,,,,,,,902.3455255000154,904.2506905000191,1.9051650000037625,right,1,1.873950099979993,54,,,,,,,,,,,,,negar,2023-07-18_12h41.56.484,Rewa's Exp,2023.1.2,59.96857646402143,
Countdown_1.5s.mp4,red,green,right,Countdown_1.5s.jpg,8,0,8,0,0,3,3,2,,,,,,,,,,,,908.1429750000243,909.3498410999891,1.2068660999648273,right,1,1.1809362000203691,55,,,,,,,,,,,,,negar,2023-07-18_12h41.56.484,Rewa's Exp,2023.1.2,59.96857646402143,
Countdown_2s.mp4,green,red,left,Countdown_2s.jpg,8,0,8,0,0,4,4,5,,,,,,,,,,,,913.2700808999944,914.9165201000287,1.646439200034365,left,1,1.629882399982307,56,,,,,,,,,,,,,negar,2023-07-18_12h41.56.484,Rewa's Exp,2023.1.2,59.96857646402143,
Countdown_2s.mp4,red,green,right,Countdown_2s.jpg,8,0,8,0,0,5,5,1,,,,,,,,,,,,918.8212481000228,920.5499755999772,1.7287274999544024,right,1,1.7035825999919325,57,,,,,,,,,,,,,negar,2023-07-18_12h41.56.484,Rewa's Exp,2023.1.2,59.96857646402143,
Countdown_2s.mp4,green,red,left,Countdown_2s.jpg,8,0,8,0,,,,,0,0,0,5,,,,,,,,924.4849566000048,926.083265400026,1.5983088000211865,,,,58,930.075230300019,left,1,1.5740801999927498,,,,,,,,,negar,2023-07-18_12h41.56.484,Rewa's Exp,2023.1.2,59.96857646402143,
Countdown_2.5s.mp4,red,green,right,Countdown_2.5s.jpg,8,0,8,0,,,,,0,1,1,0,,,,,,,,929.9988303999999,932.2832599999965,2.284429599996656,,,,59,935.5891009999905,right,1,2.2610850000055507,,,,,,,,,negar,2023-07-18_12h41.56.484,Rewa's Exp,2023.1.2,59.96857646402143,
Countdown_2.5s.mp4,green,red,left,Countdown_2.5s.jpg,8,0,8,0,,,,,0,2,2,4,,,,,,,,936.198661500006,938.4000777999754,2.2014162999694236,,,,60,941.7888957000105,left,1,2.1723037000047043,,,,,,,,,negar,2023-07-18_12h41.56.484,Rewa's Exp,2023.1.2,59.96857646402143,
Countdown_1.5s.mp4,green,red,left,Countdown_1.5s.jpg,8,0,8,0,,,,,0,3,3,3,,,,,,,,942.3324182999786,943.8167681000195,1.4843498000409454,,,,61,947.9227021000115,left,1,1.471212700009346,,,,,,,,,negar,2023-07-18_12h41.56.484,Rewa's Exp,2023.1.2,59.96857646402143,
Countdown_2s.mp4,red,green,right,Countdown_2s.jpg,8,0,8,0,,,,,0,4,4,1,,,,,,,,947.7367908000015,949.0833997000009,1.34660889999941,,,,62,953.3270766999922,right,1,1.3222209999803454,,,,,,,,,negar,2023-07-18_12h41.56.484,Rewa's Exp,2023.1.2,59.96857646402143,
Countdown_1.5s.mp4,red,green,right,Countdown_1.5s.jpg,8,0,8,0,,,,,0,5,5,2,,,,,,,,953.0208058999851,954.3335865000263,1.312780600041151,,,,63,958.6110098999925,right,1,1.287598299968522,,,,,,,,,negar,2023-07-18_12h41.56.484,Rewa's Exp,2023.1.2,59.96857646402143,
Countdown_2s.mp4,green,red,left,Countdown_2s.jpg,8,0,8,0,,,,,,,,,0,0,0,5,,,,958.28257879999,960.0167548999889,1.7341760999988765,,,,64,,,,,left,1,1.7056363999727182,,,,,,negar,2023-07-18_12h41.56.484,Rewa's Exp,2023.1.2,59.96857646402143,
Countdown_1.5s.mp4,red,green,right,Countdown_1.5s.jpg,8,0,8,0,,,,,,,,,0,1,1,2,,,,963.9168755999999,965.350098200026,1.4332226000260562,,,,65,,,,,right,1,1.4152595999767072,,,,,,negar,2023-07-18_12h41.56.484,Rewa's Exp,2023.1.2,59.96857646402143,
Countdown_2.5s.mp4,green,red,left,Countdown_2.5s.jpg,8,0,8,0,,,,,,,,,0,2,2,4,,,,969.3378001999808,971.3833294999786,2.0455292999977246,,,,66,,,,,left,1,2.026753500045743,,,,,,negar,2023-07-18_12h41.56.484,Rewa's Exp,2023.1.2,59.96857646402143,
Countdown_2.5s.mp4,red,green,right,Countdown_2.5s.jpg,8,0,8,0,,,,,,,,,0,3,3,0,,,,975.3031395000289,977.5667669000104,2.2636273999814875,,,,67,,,,,right,1,2.237171799992211,,,,,,negar,2023-07-18_12h41.56.484,Rewa's Exp,2023.1.2,59.96857646402143,
Countdown_2s.mp4,red,green,right,Countdown_2s.jpg,8,0,8,0,,,,,,,,,0,4,4,1,,,,981.5177473999793,983.2667907000287,1.7490433000493795,,,,65,,,,,left,0,1.7260080999694765,,,,,,negar,2023-07-18_12h41.56.484,Rewa's Exp,2023.1.2,59.96857646402143,
Countdown_1.5s.mp4,green,red,left,Countdown_1.5s.jpg,8,0,8,0,,,,,,,,,0,5,5,3,,,,987.1842380000162,988.5003216000041,1.3160835999879055,,,,66,,,,,left,1,1.2986491000046954,,,,,,negar,2023-07-18_12h41.56.484,Rewa's Exp,2023.1.2,59.96857646402143,
,,,,,8,0,8,0,,,,,,,,,,,,,,,,,,,,,,,,,,,,,,995.2521870000055,995.2521870000055,995.2521870000055,space,9.014102299988735,negar,2023-07-18_12h41.56.484,Rewa's Exp,2023.1.2,59.96857646402143,
Countdown_1.5s.mp4,red,green,right,Countdown_1.5s.jpg,9,0,9,0,0,0,0,2,,,,,,,,,,,,1001.4646972999908,1002.949992800015,1.4852955000242218,left,0,1.4585614000097848,64,,,,,,,,,,,,,negar,2023-07-18_12h41.56.484,Rewa's Exp,2023.1.2,59.96857646402143,
Countdown_2s.mp4,green,red,left,Countdown_2s.jpg,9,0,9,0,0,1,1,5,,,,,,,,,,,,1006.8648974000243,1007.9166891999776,1.0517917999532074,left,1,1.027543300006073,65,,,,,,,,,,,,,negar,2023-07-18_12h41.56.484,Rewa's Exp,2023.1.2,59.96857646402143,
Countdown_1.5s.mp4,green,red,left,Countdown_1.5s.jpg,9,0,9,0,0,2,2,3,,,,,,,,,,,,1011.8113788000192,1013.1002041000174,1.2888252999982797,left,1,1.255942000017967,66,,,,,,,,,,,,,negar,2023-07-18_12h41.56.484,Rewa's Exp,2023.1.2,59.96857646402143,
Countdown_2s.mp4,red,green,right,Countdown_2s.jpg,9,0,9,0,0,3,3,1,,,,,,,,,,,,1016.9985288000316,1018.2834546000231,1.2849257999914698,right,1,1.2612313000136055,67,,,,,,,,,,,,,negar,2023-07-18_12h41.56.484,Rewa's Exp,2023.1.2,59.96857646402143,
Countdown_2.5s.mp4,red,green,right,Countdown_2.5s.jpg,9,0,9,0,0,4,4,0,,,,,,,,,,,,1022.1958571000141,1024.2676210000063,2.07176389999222,left,0,2.047710599959828,65,,,,,,,,,,,,,negar,2023-07-18_12h41.56.484,Rewa's Exp,2023.1.2,59.96857646402143,
Countdown_2.5s.mp4,green,red,left,Countdown_2.5s.jpg,9,0,9,0,0,5,5,4,,,,,,,,,,,,1028.21737139998,1030.400614699989,2.183243300009053,left,1,2.1637632999918424,66,,,,,,,,,,,,,negar,2023-07-18_12h41.56.484,Rewa's Exp,2023.1.2,59.96857646402143,
Countdown_1.5s.mp4,red,green,right,Countdown_1.5s.jpg,9,0,9,0,,,,,0,0,0,2,,,,,,,,1034.322420499986,1035.6003051000298,1.2778846000437625,,,,67,1039.9126839999808,right,1,1.2488375999964774,,,,,,,,,negar,2023-07-18_12h41.56.484,Rewa's Exp,2023.1.2,59.96857646402143,
Countdown_1.5s.mp4,green,red,left,Countdown_1.5s.jpg,9,0,9,0,,,,,0,1,1,3,,,,,,,,1039.5065447000088,1040.9335529999807,1.4270082999719307,,,,65,1045.0968354999786,right,0,1.4011962999938987,,,,,,,,,negar,2023-07-18_12h41.56.484,Rewa's Exp,2023.1.2,59.96857646402143,
Countdown_2.5s.mp4,red,green,right,Countdown_2.5s.jpg,9,0,9,0,,,,,0,2,2,0,,,,,,,,1044.8682611000258,1046.8336163000204,1.9653551999945194,,,,63,1050.4584549000137,left,0,1.9433352999622002,,,,,,,,,negar,2023-07-18_12h41.56.484,Rewa's Exp,2023.1.2,59.96857646402143,
Countdown_2.5s.mp4,green,red,left,Countdown_2.5s.jpg,9,0,9,0,,,,,0,3,3,4,,,,,,,,1050.782585399982,1052.7668214000296,1.984236000047531,,,,64,1056.372804499988,left,1,1.9564778999774717,,,,,,,,,negar,2023-07-18_12h41.56.484,Rewa's Exp,2023.1.2,59.96857646402143,
Countdown_2s.mp4,red,green,right,Countdown_2s.jpg,9,0,9,0,,,,,0,4,4,1,,,,,,,,1056.6710613999749,1058.3839421999874,1.712880800012499,,,,65,1062.2613343999838,right,1,1.6927080000168644,,,,,,,,,negar,2023-07-18_12h41.56.484,Rewa's Exp,2023.1.2,59.96857646402143,
Countdown_2s.mp4,green,red,left,Countdown_2s.jpg,9,0,9,0,,,,,0,5,5,5,,,,,,,,1062.3183773999917,1063.9168485000264,1.5984711000346579,,,,66,1067.908658500004,left,1,1.5813263999880292,,,,,,,,,negar,2023-07-18_12h41.56.484,Rewa's Exp,2023.1.2,59.96857646402143,
Countdown_2.5s.mp4,red,green,right,Countdown_2.5s.jpg,9,0,9,0,,,,,,,,,0,0,0,0,,,,1067.842015800008,1070.2221540000173,2.3801382000092417,,,,67,,,,,right,1,2.354638399963733,,,,,,negar,2023-07-18_12h41.56.484,Rewa's Exp,2023.1.2,59.96857646402143,
Countdown_2s.mp4,green,red,left,Countdown_2s.jpg,9,0,9,0,,,,,,,,,0,1,1,5,,,,1074.1274112000247,1075.9334798000054,1.8060685999807902,,,,68,,,,,left,1,1.7891082999994978,,,,,,negar,2023-07-18_12h41.56.484,Rewa's Exp,2023.1.2,59.96857646402143,
Countdown_1.5s.mp4,red,green,right,Countdown_1.5s.jpg,9,0,9,0,,,,,,,,,0,2,2,2,,,,1079.8542401000159,1081.3502970000263,1.4960569000104442,,,,66,,,,,None,0,,,,,,,negar,2023-07-18_12h41.56.484,Rewa's Exp,2023.1.2,59.96857646402143,
Countdown_2.5s.mp4,green,red,left,Countdown_2.5s.jpg,9,0,9,0,,,,,,,,,0,3,3,4,,,,1085.2630929999868,1087.5503727000323,2.287279700045474,,,,64,,,,,right,0,2.2700372000108473,,,,,,negar,2023-07-18_12h41.56.484,Rewa's Exp,2023.1.2,59.96857646402143,
Countdown_1.5s.mp4,green,red,left,Countdown_1.5s.jpg,9,0,9,0,,,,,,,,,0,4,4,3,,,,1091.4589108999935,1092.8169773999834,1.3580664999899454,,,,65,,,,,left,1,1.3372998999548145,,,,,,negar,2023-07-18_12h41.56.484,Rewa's Exp,2023.1.2,59.96857646402143,
Countdown_2s.mp4,red,green,right,Countdown_2s.jpg,9,0,9,0,,,,,,,,,0,5,5,1,,,,1096.7440706000198,1098.4837651000125,1.7396944999927655,,,,66,,,,,right,1,1.708386900019832,,,,,,negar,2023-07-18_12h41.56.484,Rewa's Exp,2023.1.2,59.96857646402143,
,,,,,9,0,9,0,,,,,,,,,,,,,,,,,,,,,,,,,,,,,,1105.2349259000039,1105.2349259000039,1105.2349259000039,space,1.383122400031425,negar,2023-07-18_12h41.56.484,Rewa's Exp,2023.1.2,59.96857646402143,
Countdown_1.5s.mp4,red,green,right,Countdown_1.5s.jpg,10,0,10,0,0,0,0,2,,,,,,,,,,,,1103.8252370000118,1105.0336599000148,1.2084229000029154,right,1,1.1872794999508187,67,,,,,,,,,,,,,negar,2023-07-18_12h41.56.484,Rewa's Exp,2023.1.2,59.96857646402143,
Countdown_2.5s.mp4,green,red,left,Countdown_2.5s.jpg,10,0,10,0,0,1,1,4,,,,,,,,,,,,1108.9474288999918,1111.200285000028,2.252856100036297,right,0,2.224160399986431,65,,,,,,,,,,,,,negar,2023-07-18_12h41.56.484,Rewa's Exp,2023.1.2,59.96857646402143,
Countdown_2s.mp4,red,green,right,Countdown_2s.jpg,10,0,10,0,0,2,2,1,,,,,,,,,,,,1115.115698700014,1116.933848100016,1.8181494000018574,right,1,1.7920982000068761,66,,,,,,,,,,,,,negar,2023-07-18_12h41.56.484,Rewa's Exp,2023.1.2,59.96857646402143,
Countdown_2s.mp4,green,red,left,Countdown_2s.jpg,10,0,10,0,0,3,3,5,,,,,,,,,,,,1120.8426940999925,1122.5004830000107,1.657788900018204,left,1,1.6325295999995433,67,,,,,,,,,,,,,negar,2023-07-18_12h41.56.484,Rewa's Exp,2023.1.2,59.96857646402143,
Countdown_1.5s.mp4,green,red,left,Countdown_1.5s.jpg,10,0,10,0,0,4,4,3,,,,,,,,,,,,1126.4017425000202,1127.8006009000237,1.398858400003519,left,1,1.370974599965848,68,,,,,,,,,,,,,negar,2023-07-18_12h41.56.484,Rewa's Exp,2023.1.2,59.96857646402143,
Countdown_2.5s.mp4,red,green,right,Countdown_2.5s.jpg,10,0,10,0,0,5,5,0,,,,,,,,,,,,1131.752361699997,1134.0839646999957,2.3316029999987222,right,1,2.2989925000001676,69,,,,,,,,,,,,,negar,2023-07-18_12h41.56.484,Rewa's Exp,2023.1.2,59.96857646402143,
Countdown_2s.mp4,green,red,left,Countdown_2s.jpg,10,0,10,0,,,,,0,0,0,5,,,,,,,,1138.0162796999793,1139.5502733999747,1.5339936999953352,,,,70,1143.6065364999813,left,1,1.5164007000275888,,,,,,,,,negar,2023-07-18_12h41.56.484,Rewa's Exp,2023.1.2,59.96857646402143,
Countdown_1.5s.mp4,red,green,right,Countdown_1.5s.jpg,10,0,10,0,,,,,0,1,1,2,,,,,,,,1143.459641000023,1144.7839093999937,1.324268399970606,,,,71,1149.0499315999914,right,1,1.2956636000308208,,,,,,,,,negar,2023-07-18_12h41.56.484,Rewa's Exp,2023.1.2,59.96857646402143,
Countdown_2s.mp4,red,green,right,Countdown_2s.jpg,10,0,10,0,,,,,0,2,2,1,,,,,,,,1148.6869220000226,1150.500518899993,1.8135968999704346,,,,72,1154.277133799973,right,1,1.7897813999443315,,,,,,,,,negar,2023-07-18_12h41.56.484,Rewa's Exp,2023.1.2,59.96857646402143,
Countdown_2.5s.mp4,red,green,right,Countdown_2.5s.jpg,10,0,10,0,,,,,0,3,3,0,,,,,,,,1154.4517035000026,1156.6337822999922,2.18207879998954,,,,70,1160.0419130999944,left,0,2.1519710999564268,,,,,,,,,negar,2023-07-18_12h41.56.484,Rewa's Exp,2023.1.2,59.96857646402143,
Countdown_2.5s.mp4,green,red,left,Countdown_2.5s.jpg,10,0,10,0,,,,,0,4,4,4,,,,,,,,1160.531118199986,1162.5337813000078,2.0026631000218913,,,,71,1166.1213262999663,left,1,1.9851817000308074,,,,,,,,,negar,2023-07-18_12h41.56.484,Rewa's Exp,2023.1.2,59.96857646402143,
Countdown_1.5s.mp4,green,red,left,Countdown_1.5s.jpg,10,0,10,0,,,,,0,5,5,3,,,,,,,,1166.4675672000158,1167.683847200009,1.2162799999932759,,,,69,1172.057854100014,right,0,1.1838061999878846,,,,,,,,,negar,2023-07-18_12h41.56.484,Rewa's Exp,2023.1.2,59.96857646402143,
Countdown_2s.mp4,red,green,right,Countdown_2s.jpg,10,0,10,0,,,,,,,,,0,0,0,1,,,,1171.5781832999783,1173.2836505000014,1.7054672000231221,,,,67,,,,,left,0,1.6730753000010736,,,,,,negar,2023-07-18_12h41.56.484,Rewa's Exp,2023.1.2,59.96857646402143,
Countdown_2s.mp4,green,red,left,Countdown_2s.jpg,10,0,10,0,,,,,,,,,0,1,1,5,,,,1177.2065542999771,1178.7670616999967,1.56050740001956,,,,68,,,,,left,1,1.5336817000061274,,,,,,negar,2023-07-18_12h41.56.484,Rewa's Exp,2023.1.2,59.96857646402143,
Countdown_1.5s.mp4,green,red,left,Countdown_1.5s.jpg,10,0,10,0,,,,,,,,,0,2,2,3,,,,1182.6799379999866,1183.8838363999967,1.2038984000100754,,,,69,,,,,left,1,1.1715077999979258,,,,,,negar,2023-07-18_12h41.56.484,Rewa's Exp,2023.1.2,59.96857646402143,
Countdown_2.5s.mp4,red,green,right,Countdown_2.5s.jpg,10,0,10,0,,,,,,,,,0,3,3,0,,,,1187.794547300029,1189.8338089000317,2.0392616000026464,,,,70,,,,,right,1,2.0178884000051767,,,,,,negar,2023-07-18_12h41.56.484,Rewa's Exp,2023.1.2,59.96857646402143,
Countdown_2.5s.mp4,green,red,left,Countdown_2.5s.jpg,10,0,10,0,,,,,,,,,0,4,4,4,,,,1193.7649841000093,1195.8170888000168,2.052104700007476,,,,68,,,,,right,0,2.0304105000104755,,,,,,negar,2023-07-18_12h41.56.484,Rewa's Exp,2023.1.2,59.96857646402143,
Countdown_1.5s.mp4,red,green,right,Countdown_1.5s.jpg,10,0,10,0,,,,,,,,,0,5,5,2,,,,1199.7657339000143,1200.88386370003,1.1181298000155948,,,,69,,,,,right,1,1.0943439999828115,,,,,,negar,2023-07-18_12h41.56.484,Rewa's Exp,2023.1.2,59.96857646402143,
,,,,,10,0,10,0,,,,,,,,,,,,,,,,,,,,,,,,,,,,,,1207.6184050000156,1207.6184050000156,1207.6184050000156,space,13.039799199963454,negar,2023-07-18_12h41.56.484,Rewa's Exp,2023.1.2,59.96857646402143,
Countdown_1.5s.mp4,green,red,left,Countdown_1.5s.jpg,11,0,11,0,0,0,0,3,,,,,,,,,,,,1217.8571492999909,1219.0338978000218,1.1767485000309534,left,1,1.155262499989476,70,,,,,,,,,,,,,negar,2023-07-18_12h41.56.484,Rewa's Exp,2023.1.2,59.96857646402143,
Countdown_1.5s.mp4,red,green,right,Countdown_1.5s.jpg,11,0,11,0,0,1,1,2,,,,,,,,,,,,1222.940556299989,1224.2506357000093,1.3100794000201859,right,1,1.2790559999994002,71,,,,,,,,,,,,,negar,2023-07-18_12h41.56.484,Rewa's Exp,2023.1.2,59.96857646402143,
Countdown_2s.mp4,red,green,right,Countdown_2s.jpg,11,0,11,0,0,2,2,1,,,,,,,,,,,,1228.1817636999767,1229.8339358000085,1.6521721000317484,right,1,1.6213997000013478,72,,,,,,,,,,,,,negar,2023-07-18_12h41.56.484,Rewa's Exp,2023.1.2,59.96857646402143,
Countdown_2.5s.mp4,red,green,right,Countdown_2.5s.jpg,11,0,11,0,0,3,3,0,,,,,,,,,,,,1233.741009999998,1235.5505125999916,1.8095025999937207,right,1,1.782690600026399,73,,,,,,,,,,,,,negar,2023-07-18_12h41.56.484,Rewa's Exp,2023.1.2,59.96857646402143,
Countdown_2.5s.mp4,green,red,left,Countdown_2.5s.jpg,11,0,11,0,0,4,4,4,,,,,,,,,,,,1239.4598942000302,1241.5340224999818,2.0741282999515533,left,1,2.0488866000087,74,,,,,,,,,,,,,negar,2023-07-18_12h41.56.484,Rewa's Exp,2023.1.2,59.96857646402143,
Countdown_2s.mp4,green,red,left,Countdown_2s.jpg,11,0,11,0,0,5,5,5,,,,,,,,,,,,1245.4996205000207,1247.1173066999763,1.6176861999556422,left,1,1.5997070000157692,75,,,,,,,,,,,,,negar,2023-07-18_12h41.56.484,Rewa's Exp,2023.1.2,59.96857646402143,
Countdown_2.5s.mp4,green,red,left,Countdown_2.5s.jpg,11,0,11,0,,,,,0,0,0,4,,,,,,,,1251.0118418000056,1253.1006126999855,2.0887708999798633,,,,76,1256.6021268999903,left,1,2.071475600008853,,,,,,,,,negar,2023-07-18_12h41.56.484,Rewa's Exp,2023.1.2,59.96857646402143,
Countdown_1.5s.mp4,green,red,left,Countdown_1.5s.jpg,11,0,11,0,,,,,0,1,1,3,,,,,,,,1257.062230999989,1258.300475199998,1.2382442000089213,,,,77,1262.6525032999925,left,1,1.2217916999943554,,,,,,,,,negar,2023-07-18_12h41.56.484,Rewa's Exp,2023.1.2,59.96857646402143,
Countdown_2.5s.mp4,red,green,right,Countdown_2.5s.jpg,11,0,11,0,,,,,0,2,2,0,,,,,,,,1262.225547900016,1264.500876199978,2.275328299961984,,,,78,1267.8157625999884,right,1,2.242693500011228,,,,,,,,,negar,2023-07-18_12h41.56.484,Rewa's Exp,2023.1.2,59.96857646402143,
Countdown_2s.mp4,red,green,right,Countdown_2s.jpg,11,0,11,0,,,,,0,3,3,1,,,,,,,,1268.468174299982,1270.1171985000256,1.649024200043641,,,,79,1274.0583820000174,right,1,1.624445499968715,,,,,,,,,negar,2023-07-18_12h41.56.484,Rewa's Exp,2023.1.2,59.96857646402143,
Countdown_2s.mp4,green,red,left,Countdown_2s.jpg,11,0,11,0,,,,,0,4,4,5,,,,,,,,1274.0698261000216,1275.6339951999835,1.5641690999618731,,,,80,1279.6600506000104,left,1,1.5333461999543943,,,,,,,,,negar,2023-07-18_12h41.56.484,Rewa's Exp,2023.1.2,59.96857646402143,
Countdown_1.5s.mp4,red,green,right,Countdown_1.5s.jpg,11,0,11,0,,,,,0,5,5,2,,,,,,,,1279.5471964000026,1280.8340643999982,1.286867999995593,,,,81,1285.13748819998,right,1,1.2561584999784827,,,,,,,,,negar,2023-07-18_12h41.56.484,Rewa's Exp,2023.1.2,59.96857646402143,
Countdown_2.5s.mp4,green,red,left,Countdown_2.5s.jpg,11,0,11,0,,,,,,,,,0,0,0,4,,,,1284.7888177999994,1286.5507787999813,1.7619609999819659,,,,79,,,,,right,0,1.7438773000030778,,,,,,negar,2023-07-18_12h41.56.484,Rewa's Exp,2023.1.2,59.96857646402143,
Countdown_2s.mp4,red,green,right,Countdown_2s.jpg,11,0,11,0,,,,,,,,,0,1,1,1,,,,1290.4676743000164,1292.184174199996,1.7164998999796808,,,,80,,,,,right,1,1.6958257000078447,,,,,,negar,2023-07-18_12h41.56.484,Rewa's Exp,2023.1.2,59.96857646402143,
Countdown_1.5s.mp4,green,red,left,Countdown_1.5s.jpg,11,0,11,0,,,,,,,,,0,2,2,3,,,,1296.108553100028,1297.2508242999902,1.1422711999621242,,,,78,,,,,right,0,1.111184899986256,,,,,,negar,2023-07-18_12h41.56.484,Rewa's Exp,2023.1.2,59.96857646402143,
Countdown_2s.mp4,green,red,left,Countdown_2s.jpg,11,0,11,0,,,,,,,,,0,3,3,5,,,,1301.1425669000018,1302.9345320999855,1.7919651999836788,,,,79,,,,,left,1,1.773740800039377,,,,,,negar,2023-07-18_12h41.56.484,Rewa's Exp,2023.1.2,59.96857646402143,
Countdown_2.5s.mp4,red,green,right,Countdown_2.5s.jpg,11,0,11,0,,,,,,,,,0,4,4,0,,,,1306.8680345999892,1308.6507515999838,1.7827169999945909,,,,77,,,,,left,0,1.760214400012046,,,,,,negar,2023-07-18_12h41.56.484,Rewa's Exp,2023.1.2,59.96857646402143,
Countdown_1.5s.mp4,red,green,right,Countdown_1.5s.jpg,11,0,11,0,,,,,,,,,0,5,5,2,,,,1312.543105699995,1314.0173045999836,1.4741988999885507,,,,78,,,,,right,1,1.45270610001171,,,,,,negar,2023-07-18_12h41.56.484,Rewa's Exp,2023.1.2,59.96857646402143,
,,,,,11,0,11,0,,,,,,,,,,,,,,,,,,,,,,,,,,,,,,1320.7518197000027,1320.7518197000027,1320.7518197000027,space,15.994758099957835,negar,2023-07-18_12h41.56.484,Rewa's Exp,2023.1.2,59.96857646402143,
Countdown_2s.mp4,red,green,right,Countdown_2s.jpg,12,0,12,0,0,0,0,1,,,,,,,,,,,,1333.9721681000083,1335.7006965000182,1.7285284000099637,left,0,1.696051399980206,76,,,,,,,,,,,,,negar,2023-07-18_12h41.56.484,Rewa's Exp,2023.1.2,59.96857646402143,
Countdown_2s.mp4,green,red,left,Countdown_2s.jpg,12,0,12,0,0,1,1,5,,,,,,,,,,,,1339.609707500029,1340.6508145999978,1.04110709996894,left,1,1.0185707999626175,77,,,,,,,,,,,,,negar,2023-07-18_12h41.56.484,Rewa's Exp,2023.1.2,59.96857646402143,
Countdown_1.5s.mp4,red,green,right,Countdown_1.5s.jpg,12,0,12,0,0,2,2,2,,,,,,,,,,,,1344.5835072000045,1345.7008353000274,1.1173281000228599,right,1,1.0851390999741852,78,,,,,,,,,,,,,negar,2023-07-18_12h41.56.484,Rewa's Exp,2023.1.2,59.96857646402143,
Countdown_2.5s.mp4,green,red,left,Countdown_2.5s.jpg,12,0,12,0,0,3,3,4,,,,,,,,,,,,1349.612791499996,1351.7676423999947,2.1548508999985643,left,1,2.1358440999756567,79,,,,,,,,,,,,,negar,2023-07-18_12h41.56.484,Rewa's Exp,2023.1.2,59.96857646402143,
Countdown_1.5s.mp4,green,red,left,Countdown_1.5s.jpg,12,0,12,0,0,4,4,3,,,,,,,,,,,,1355.7393108999822,1356.9343004000257,1.194989500043448,left,1,1.1690489999600686,80,,,,,,,,,,,,,negar,2023-07-18_12h41.56.484,Rewa's Exp,2023.1.2,59.96857646402143,
Countdown_2.5s.mp4,red,green,right,Countdown_2.5s.jpg,12,0,12,0,0,5,5,0,,,,,,,,,,,,1360.895421400026,1363.1841140000033,2.2886925999773666,right,1,2.259814399993047,81,,,,,,,,,,,,,negar,2023-07-18_12h41.56.484,Rewa's Exp,2023.1.2,59.96857646402143,
Countdown_2s.mp4,green,red,left,Countdown_2s.jpg,12,0,12,0,,,,,0,0,0,5,,,,,,,,1367.1200414000195,1368.8675623000017,1.7475208999821916,,,,82,1372.7103334999993,left,1,1.7156554000102915,,,,,,,,,negar,2023-07-18_12h41.56.484,Rewa's Exp,2023.1.2,59.96857646402143,
Countdown_2.5s.mp4,red,green,right,Countdown_2.5s.jpg,12,0,12,0,,,,,0,1,1,0,,,,,,,,1372.7786982000107,1375.000736600021,2.222038400010206,,,,83,1378.3689889999805,right,1,2.200880500022322,,,,,,,,,negar,2023-07-18_12h41.56.484,Rewa's Exp,2023.1.2,59.96857646402143,
Countdown_2s.mp4,red,green,right,Countdown_2s.jpg,12,0,12,0,,,,,0,2,2,1,,,,,,,,1378.893045899982,1380.5008907000301,1.607844800048042,,,,84,1384.4832602000097,right,1,1.5836118999868631,,,,,,,,,negar,2023-07-18_12h41.56.484,Rewa's Exp,2023.1.2,59.96857646402143,
Countdown_2.5s.mp4,green,red,left,Countdown_2.5s.jpg,12,0,12,0,,,,,0,3,3,4,,,,,,,,1384.4296407999936,1386.3676884000306,1.9380476000369526,,,,85,1390.0199190999847,left,1,1.919169000000693,,,,,,,,,negar,2023-07-18_12h41.56.484,Rewa's Exp,2023.1.2,59.96857646402143,
Countdown_1.5s.mp4,red,green,right,Countdown_1.5s.jpg,12,0,12,0,,,,,0,4,4,2,,,,,,,,1390.2576435999945,1391.7509436000255,1.493300000031013,,,,86,1395.8479377999902,right,1,1.475720300048124,,,,,,,,,negar,2023-07-18_12h41.56.484,Rewa's Exp,2023.1.2,59.96857646402143,
Countdown_1.5s.mp4,green,red,left,Countdown_1.5s.jpg,12,0,12,0,,,,,0,5,5,3,,,,,,,,1395.6979496999993,1397.1675596000277,1.4696099000284448,,,,84,1401.2882042999845,right,0,1.4415099000325426,,,,,,,,,negar,2023-07-18_12h41.56.484,Rewa's Exp,2023.1.2,59.96857646402143,
Countdown_1.5s.mp4,green,red,left,Countdown_1.5s.jpg,12,0,12,0,,,,,,,,,0,0,0,3,,,,1401.1135436000186,1402.3342276000185,1.220683999999892,,,,85,,,,,left,1,1.1950339000322856,,,,,,negar,2023-07-18_12h41.56.484,Rewa's Exp,2023.1.2,59.96857646402143,
Countdown_1.5s.mp4,red,green,right,Countdown_1.5s.jpg,12,0,12,0,,,,,,,,,0,1,1,2,,,,1406.2202037000097,1407.7007991999853,1.4805954999756068,,,,86,,,,,right,1,1.4483386999927461,,,,,,negar,2023-07-18_12h41.56.484,Rewa's Exp,2023.1.2,59.96857646402143,
Countdown_2.5s.mp4,red,green,right,Countdown_2.5s.jpg,12,0,12,0,,,,,,,,,0,2,2,0,,,,1411.6244614000316,1413.5343355999794,1.909874199947808,,,,84,,,,,left,0,1.8833111999556422,,,,,,negar,2023-07-18_12h41.56.484,Rewa's Exp,2023.1.2,59.96857646402143,
Countdown_2s.mp4,green,red,left,Countdown_2s.jpg,12,0,12,0,,,,,,,,,0,3,3,5,,,,1417.4612091000308,1418.9843723999802,1.523163299949374,,,,82,,,,,right,0,1.5034770999918692,,,,,,negar,2023-07-18_12h41.56.484,Rewa's Exp,2023.1.2,59.96857646402143,
Countdown_2.5s.mp4,green,red,left,Countdown_2.5s.jpg,12,0,12,0,,,,,,,,,0,4,4,4,,,,1422.9069343000301,1425.0342634000117,2.12732909998158,,,,83,,,,,left,1,2.1050693999859504,,,,,,negar,2023-07-18_12h41.56.484,Rewa's Exp,2023.1.2,59.96857646402143,
Countdown_2s.mp4,red,green,right,Countdown_2s.jpg,12,0,12,0,,,,,,,,,0,5,5,1,,,,1428.9347349000163,1430.634356399998,1.6996214999817312,,,,81,,,,,left,0,1.6685248999856412,,,,,,negar,2023-07-18_12h41.56.484,Rewa's Exp,2023.1.2,59.96857646402143,
,,,,,12,0,12,0,,,,,,,,,,,,,,,,,,,,,,,,,,,,,,1437.352282000007,1437.352282000007,1437.352282000007,space,9.026420700014569,negar,2023-07-18_12h41.56.484,Rewa's Exp,2023.1.2,59.96857646402143,
Countdown_2s.mp4,green,red,left,Countdown_2s.jpg,13,0,13,0,0,0,0,5,,,,,,,,,,,,1443.601416599995,1445.3843321999884,1.78291559999343,left,1,1.764044500014279,82,,,,,,,,,,,,,negar,2023-07-18_12h41.56.484,Rewa's Exp,2023.1.2,59.96857646402143,
Countdown_2.5s.mp4,green,red,left,Countdown_2.5s.jpg,13,0,13,0,0,1,1,4,,,,,,,,,,,,1449.337060299993,1451.2677249999833,1.9306646999903023,left,1,1.8990097999922,83,,,,,,,,,,,,,negar,2023-07-18_12h41.56.484,Rewa's Exp,2023.1.2,59.96857646402143,
Countdown_2s.mp4,red,green,right,Countdown_2s.jpg,13,0,13,0,0,2,2,1,,,,,,,,,,,,1455.2103098999942,1456.934199100011,1.7238892000168562,left,0,1.6975455999490805,81,,,,,,,,,,,,,negar,2023-07-18_12h41.56.484,Rewa's Exp,2023.1.2,59.96857646402143,
Countdown_2.5s.mp4,red,green,right,Countdown_2.5s.jpg,13,0,13,0,0,3,3,0,,,,,,,,,,,,1460.853125100024,1462.5175542000216,1.6644290999975055,left,0,1.639593999949284,79,,,,,,,,,,,,,negar,2023-07-18_12h41.56.484,Rewa's Exp,2023.1.2,59.96857646402143,
Countdown_1.5s.mp4,green,red,left,Countdown_1.5s.jpg,13,0,13,0,0,4,4,3,,,,,,,,,,,,1466.4123242999776,1467.7677686000243,1.3554443000466563,left,1,1.3271157999988645,80,,,,,,,,,,,,,negar,2023-07-18_12h41.56.484,Rewa's Exp,2023.1.2,59.96857646402143,
Countdown_1.5s.mp4,red,green,right,Countdown_1.5s.jpg,13,0,13,0,0,5,5,2,,,,,,,,,,,,1471.7306434999919,1473.0176080000238,1.2869645000318997,right,1,1.2665548999793828,81,,,,,,,,,,,,,negar,2023-07-18_12h41.56.484,Rewa's Exp,2023.1.2,59.96857646402143,
Countdown_2.5s.mp4,green,red,left,Countdown_2.5s.jpg,13,0,13,0,,,,,0,0,0,4,,,,,,,,1476.9579177999985,1479.1176089000073,2.1596911000087857,,,,82,1482.548205900006,left,1,2.1344162999885157,,,,,,,,,negar,2023-07-18_12h41.56.484,Rewa's Exp,2023.1.2,59.96857646402143,
Countdown_1.5s.mp4,green,red,left,Countdown_1.5s.jpg,13,0,13,0,,,,,0,1,1,3,,,,,,,,1483.0384544000262,1484.4010645999806,1.3626101999543607,,,,83,1488.628732000012,left,1,1.3334955999744125,,,,,,,,,negar,2023-07-18_12h41.56.484,Rewa's Exp,2023.1.2,59.96857646402143,
Countdown_2.5s.mp4,red,green,right,Countdown_2.5s.jpg,13,0,13,0,,,,,0,2,2,0,,,,,,,,1488.312563000014,1490.434313900012,2.1217508999980055,,,,84,1493.9026508000097,right,1,2.0997647999902256,,,,,,,,,negar,2023-07-18_12h41.56.484,Rewa's Exp,2023.1.2,59.96857646402143,
Countdown_2s.mp4,red,green,right,Countdown_2s.jpg,13,0,13,0,,,,,0,3,3,1,,,,,,,,1494.3410674000042,1496.2512206999818,1.9101532999775372,,,,82,1499.9313073999947,left,0,1.8781405999907292,,,,,,,,,negar,2023-07-18_12h41.56.484,Rewa's Exp,2023.1.2,59.96857646402143,
Countdown_1.5s.mp4,red,green,right,Countdown_1.5s.jpg,13,0,13,0,,,,,0,4,4,2,,,,,,,,1500.1859894000227,1501.5179773999844,1.3319879999617115,,,,83,1505.7761828000075,right,1,1.3137066999915987,,,,,,,,,negar,2023-07-18_12h41.56.484,Rewa's Exp,2023.1.2,59.96857646402143,
Countdown_2s.mp4,green,red,left,Countdown_2s.jpg,13,0,13,0,,,,,0,5,5,5,,,,,,,,1505.4044716000208,1507.1004035000224,1.6959319000015967,,,,84,1510.994487799995,left,1,1.6720162000274286,,,,,,,,,negar,2023-07-18_12h41.56.484,Rewa's Exp,2023.1.2,59.96857646402143,
Countdown_2.5s.mp4,red,green,right,Countdown_2.5s.jpg,13,0,13,0,,,,,,,,,0,0,0,0,,,,1511.0251713999896,1513.2507891000132,2.2256177000235766,,,,82,,,,,left,0,2.2032598999794573,,,,,,negar,2023-07-18_12h41.56.484,Rewa's Exp,2023.1.2,59.96857646402143,
Countdown_2s.mp4,red,green,right,Countdown_2s.jpg,13,0,13,0,,,,,,,,,0,1,1,1,,,,1517.1234115000116,1518.6679345000302,1.5445230000186712,,,,80,,,,,left,0,1.5203282999573275,,,,,,negar,2023-07-18_12h41.56.484,Rewa's Exp,2023.1.2,59.96857646402143,
Countdown_2.5s.mp4,green,red,left,Countdown_2.5s.jpg,13,0,13,0,,,,,,,,,0,2,2,4,,,,1522.5550714000128,1524.7008446999826,2.1457732999697328,,,,81,,,,,left,1,2.120143399981316,,,,,,negar,2023-07-18_12h41.56.484,Rewa's Exp,2023.1.2,59.96857646402143,
Countdown_1.5s.mp4,red,green,right,Countdown_1.5s.jpg,13,0,13,0,,,,,,,,,0,3,3,2,,,,1528.5848020000267,1529.8842036999995,1.2994016999728046,,,,82,,,,,right,1,1.2763056000112556,,,,,,negar,2023-07-18_12h41.56.484,Rewa's Exp,2023.1.2,59.96857646402143,
Countdown_1.5s.mp4,green,red,left,Countdown_1.5s.jpg,13,0,13,0,,,,,,,,,0,4,4,3,,,,1533.773543999996,1535.017610299983,1.2440662999870256,,,,83,,,,,left,1,1.2137296000146307,,,,,,negar,2023-07-18_12h41.56.484,Rewa's Exp,2023.1.2,59.96857646402143,
Countdown_2s.mp4,green,red,left,Countdown_2s.jpg,13,0,13,0,,,,,,,,,0,5,5,5,,,,1538.9245312000276,1540.667554499989,1.7430232999613509,,,,84,,,,,left,1,1.719935999950394,,,,,,negar,2023-07-18_12h41.56.484,Rewa's Exp,2023.1.2,59.96857646402143,
,,,,,13,0,13,0,,,,,,,,,,,,,,,,,,,,,,,,,,,,,,1547.3690835000016,1547.3690835000016,1547.3690835000016,space,14.825950199970976,negar,2023-07-18_12h41.56.484,Rewa's Exp,2023.1.2,59.96857646402143,
Countdown_1.5s.mp4,green,red,left,Countdown_1.5s.jpg,14,0,14,0,0,0,0,3,,,,,,,,,,,,1559.4022736999905,1560.7012249000254,1.298951200034935,left,1,1.274206799978856,85,,,,,,,,,,,,,negar,2023-07-18_12h41.56.484,Rewa's Exp,2023.1.2,59.96857646402143,
Countdown_2s.mp4,red,green,right,Countdown_2s.jpg,14,0,14,0,0,1,1,1,,,,,,,,,,,,1564.6066858000122,1566.2846231000149,1.677937300002668,right,1,1.652624599984847,86,,,,,,,,,,,,,negar,2023-07-18_12h41.56.484,Rewa's Exp,2023.1.2,59.96857646402143,
Countdown_1.5s.mp4,red,green,right,Countdown_1.5s.jpg,14,0,14,0,0,2,2,2,,,,,,,,,,,,1570.2175296000205,1571.4013437000103,1.1838140999898314,right,1,1.1623770999722183,87,,,,,,,,,,,,,negar,2023-07-18_12h41.56.484,Rewa's Exp,2023.1.2,59.96857646402143,
Countdown_2s.mp4,green,red,left,Countdown_2s.jpg,14,0,14,0,0,3,3,5,,,,,,,,,,,,1575.2864179000026,1577.0679439000087,1.7815260000061244,left,1,1.749102000030689,88,,,,,,,,,,,,,negar,2023-07-18_12h41.56.484,Rewa's Exp,2023.1.2,59.96857646402143,
Countdown_2.5s.mp4,red,green,right,Countdown_2.5s.jpg,14,0,14,0,0,4,4,0,,,,,,,,,,,,1580.963366299984,1583.1679910999956,2.2046248000115156,right,1,2.185231900017243,89,,,,,,,,,,,,,negar,2023-07-18_12h41.56.484,Rewa's Exp,2023.1.2,59.96857646402143,
Countdown_2.5s.mp4,green,red,left,Countdown_2.5s.jpg,14,0,14,0,0,5,5,4,,,,,,,,,,,,1587.0976071999758,1589.4180317000137,2.320424500037916,left,1,2.2903064000420272,90,,,,,,,,,,,,,negar,2023-07-18_12h41.56.484,Rewa's Exp,2023.1.2,59.96857646402143,
Countdown_1.5s.mp4,red,green,right,Countdown_1.5s.jpg,14,0,14,0,,,,,0,0,0,2,,,,,,,,1593.351881599985,1594.8179038999951,1.4660223000100814,,,,91,1598.9420754999737,right,1,1.4449350999784656,,,,,,,,,negar,2023-07-18_12h41.56.484,Rewa's Exp,2023.1.2,59.96857646402143,
Countdown_2s.mp4,red,green,right,Countdown_2s.jpg,14,0,14,0,,,,,0,1,1,1,,,,,,,,1598.7461092000012,1600.5511930999928,1.8050838999915868,,,,92,1604.3364028999931,right,1,1.7868221999960952,,,,,,,,,negar,2023-07-18_12h41.56.484,Rewa's Exp,2023.1.2,59.96857646402143,
Countdown_2.5s.mp4,red,green,right,Countdown_2.5s.jpg,14,0,14,0,,,,,0,2,2,0,,,,,,,,1604.4653543999884,1606.3013520999812,1.8359976999927312,,,,90,1610.0555776999681,left,0,1.8118768999702297,,,,,,,,,negar,2023-07-18_12h41.56.484,Rewa's Exp,2023.1.2,59.96857646402143,
Countdown_2.5s.mp4,green,red,left,Countdown_2.5s.jpg,14,0,14,0,,,,,0,3,3,4,,,,,,,,1610.2714806000004,1612.1514479999896,1.8799673999892548,,,,91,1615.8617325000232,left,1,1.8608693999703974,,,,,,,,,negar,2023-07-18_12h41.56.484,Rewa's Exp,2023.1.2,59.96857646402143,
Countdown_1.5s.mp4,green,red,left,Countdown_1.5s.jpg,14,0,14,0,,,,,0,4,4,3,,,,,,,,1616.0571751000243,1617.4512013000203,1.3940261999960057,,,,92,1621.647468900017,left,1,1.3628639999660663,,,,,,,,,negar,2023-07-18_12h41.56.484,Rewa's Exp,2023.1.2,59.96857646402143,
Countdown_2s.mp4,green,red,left,Countdown_2s.jpg,14,0,14,0,,,,,0,5,5,5,,,,,,,,1621.3770780999912,1623.3012839999865,1.924205899995286,,,,93,1626.9673185999854,left,1,1.8995273999753408,,,,,,,,,negar,2023-07-18_12h41.56.484,Rewa's Exp,2023.1.2,59.96857646402143,
Countdown_2s.mp4,green,red,left,Countdown_2s.jpg,14,0,14,0,,,,,,,,,0,0,0,5,,,,1627.2192844999954,1628.7348209000193,1.5155364000238478,,,,94,,,,,left,1,1.4880368000012822,,,,,,negar,2023-07-18_12h41.56.484,Rewa's Exp,2023.1.2,59.96857646402143,
Countdown_2.5s.mp4,green,red,left,Countdown_2.5s.jpg,14,0,14,0,,,,,,,,,0,1,1,4,,,,1632.7037850000197,1635.101381000015,2.3975959999952465,,,,95,,,,,left,1,2.3726842000032775,,,,,,negar,2023-07-18_12h41.56.484,Rewa's Exp,2023.1.2,59.96857646402143,
Countdown_1.5s.mp4,red,green,right,Countdown_1.5s.jpg,14,0,14,0,,,,,,,,,0,2,2,2,,,,1639.0267936000018,1640.3846225999878,1.3578289999859408,,,,96,,,,,right,1,1.3296513999812305,,,,,,negar,2023-07-18_12h41.56.484,Rewa's Exp,2023.1.2,59.96857646402143,
Countdown_1.5s.mp4,green,red,left,Countdown_1.5s.jpg,14,0,14,0,,,,,,,,,0,3,3,3,,,,1644.304149099975,1645.5847993000061,1.280650200031232,,,,97,,,,,left,1,1.253148699994199,,,,,,negar,2023-07-18_12h41.56.484,Rewa's Exp,2023.1.2,59.96857646402143,
Countdown_2s.mp4,red,green,right,Countdown_2s.jpg,14,0,14,0,,,,,,,,,0,4,4,1,,,,1649.499905899982,1651.301345999993,1.8014401000109501,,,,95,,,,,left,0,1.7768789999536239,,,,,,negar,2023-07-18_12h41.56.484,Rewa's Exp,2023.1.2,59.96857646402143,
Countdown_2.5s.mp4,red,green,right,Countdown_2.5s.jpg,14,0,14,0,,,,,,,,,0,5,5,0,,,,1655.2183956999797,1657.4846510000061,2.266255300026387,,,,96,,,,,right,1,2.2348686999757774,,,,,,negar,2023-07-18_12h41.56.484,Rewa's Exp,2023.1.2,59.96857646402143,
,,,,,14,0,14,0,,,,,,,,,,,,,,,,,,,,,,,,,,,,,,1664.186042300018,1664.186042300018,1664.186042300018,space,1.8735660999664105,negar,2023-07-18_12h41.56.484,Rewa's Exp,2023.1.2,59.96857646402143,
Countdown_2.5s.mp4,red,green,right,Countdown_2.5s.jpg,15,0,15,0,0,0,0,0,,,,,,,,,,,,1663.2999733000179,1665.5348774000304,2.2349041000125,left,0,2.2170597999938764,94,,,,,,,,,,,,,negar,2023-07-18_12h41.56.484,Rewa's Exp,2023.1.2,59.96857646402143,
Countdown_1.5s.mp4,red,green,right,Countdown_1.5s.jpg,15,0,15,0,0,1,1,2,,,,,,,,,,,,1669.4984576000134,1670.9013260999927,1.4028684999793768,right,1,1.3857443999731913,95,,,,,,,,,,,,,negar,2023-07-18_12h41.56.484,Rewa's Exp,2023.1.2,59.96857646402143,
Countdown_2s.mp4,red,green,right,Countdown_2s.jpg,15,0,15,0,0,2,2,1,,,,,,,,,,,,1674.8050454999902,1676.4847384000313,1.6796929000411183,right,1,1.655470300000161,96,,,,,,,,,,,,,negar,2023-07-18_12h41.56.484,Rewa's Exp,2023.1.2,59.96857646402143,
Countdown_2.5s.mp4,green,red,left,Countdown_2.5s.jpg,15,0,15,0,0,3,3,4,,,,,,,,,,,,1680.398580499983,1682.7681821000297,2.3696016000467353,left,1,2.3504618000006303,97,,,,,,,,,,,,,negar,2023-07-18_12h41.56.484,Rewa's Exp,2023.1.2,59.96857646402143,
Countdown_2s.mp4,green,red,left,Countdown_2s.jpg,15,0,15,0,0,4,4,5,,,,,,,,,,,,1686.7175827000174,1688.4180319000152,1.70044919999782,left,1,1.6793305999599397,98,,,,,,,,,,,,,negar,2023-07-18_12h41.56.484,Rewa's Exp,2023.1.2,59.96857646402143,
Countdown_1.5s.mp4,green,red,left,Countdown_1.5s.jpg,15,0,15,0,0,5,5,3,,,,,,,,,,,,1692.3124550000066,1693.601395500009,1.2889405000023544,left,1,1.2685271000373177,99,,,,,,,,,,,,,negar,2023-07-18_12h41.56.484,Rewa's Exp,2023.1.2,59.96857646402143,
Countdown_2.5s.mp4,green,red,left,Countdown_2.5s.jpg,15,0,15,0,,,,,0,0,0,4,,,,,,,,1697.5510798000032,1699.851429799979,2.3003499999758787,,,,100,1703.1412905000034,left,1,2.2685365000506863,,,,,,,,,negar,2023-07-18_12h41.56.484,Rewa's Exp,2023.1.2,59.96857646402143,
Countdown_2s.mp4,red,green,right,Countdown_2s.jpg,15,0,15,0,,,,,0,1,1,1,,,,,,,,1703.7414167000097,1705.4682320000138,1.7268153000040911,,,,101,1709.3316911999718,right,1,1.6941395999747328,,,,,,,,,negar,2023-07-18_12h41.56.484,Rewa's Exp,2023.1.2,59.96857646402143,
Countdown_2s.mp4,green,red,left,Countdown_2s.jpg,15,0,15,0,,,,,0,2,2,5,,,,,,,,1709.3764028000296,1710.8851275999914,1.508724799961783,,,,102,1714.9665541999857,left,1,1.4844459999585524,,,,,,,,,negar,2023-07-18_12h41.56.484,Rewa's Exp,2023.1.2,59.96857646402143,
Countdown_2.5s.mp4,red,green,right,Countdown_2.5s.jpg,15,0,15,0,,,,,0,3,3,0,,,,,,,,1714.8200341999764,1717.0347592000035,2.2147250000271015,,,,103,1720.4103457999881,right,1,2.191467800003011,,,,,,,,,negar,2023-07-18_12h41.56.484,Rewa's Exp,2023.1.2,59.96857646402143,
Countdown_1.5s.mp4,green,red,left,Countdown_1.5s.jpg,15,0,15,0,,,,,0,4,4,3,,,,,,,,1720.9200752000324,1722.2680806000135,1.348005399981048,,,,104,1726.5103650999954,left,1,1.316201200010255,,,,,,,,,negar,2023-07-18_12h41.56.484,Rewa's Exp,2023.1.2,59.96857646402143,
Countdown_1.5s.mp4,red,green,right,Countdown_1.5s.jpg,15,0,15,0,,,,,0,5,5,2,,,,,,,,1726.2044966000249,1727.6346859000041,1.4301892999792472,,,,105,1731.794769399974,right,1,1.4078566000098363,,,,,,,,,negar,2023-07-18_12h41.56.484,Rewa's Exp,2023.1.2,59.96857646402143,
Countdown_2.5s.mp4,green,red,left,Countdown_2.5s.jpg,15,0,15,0,,,,,,,,,0,0,0,4,,,,1731.553309799987,1733.702000899997,2.1486911000101827,,,,103,,,,,right,0,2.1151666999794543,,,,,,negar,2023-07-18_12h41.56.484,Rewa's Exp,2023.1.2,59.96857646402143,
Countdown_2s.mp4,red,green,right,Countdown_2s.jpg,15,0,15,0,,,,,,,,,0,1,1,1,,,,1737.6400143000064,1739.6015196000226,1.9615053000161424,,,,104,,,,,right,1,1.932350699964445,,,,,,negar,2023-07-18_12h41.56.484,Rewa's Exp,2023.1.2,59.96857646402143,
Countdown_2s.mp4,green,red,left,Countdown_2s.jpg,15,0,15,0,,,,,,,,,0,2,2,5,,,,1743.5181112000137,1745.3850649999804,1.8669537999667227,,,,105,,,,,left,1,1.8471427000476979,,,,,,negar,2023-07-18_12h41.56.484,Rewa's Exp,2023.1.2,59.96857646402143,
Countdown_1.5s.mp4,red,green,right,Countdown_1.5s.jpg,15,0,15,0,,,,,,,,,0,3,3,2,,,,1749.3063201999757,1750.801642699982,1.4953225000062957,,,,103,,,,,left,0,1.489991899987217,,,,,,negar,2023-07-18_12h41.56.484,Rewa's Exp,2023.1.2,59.96857646402143,
Countdown_2.5s.mp4,red,green,right,Countdown_2.5s.jpg,15,0,15,0,,,,,,,,,0,4,4,0,,,,1754.6991334999911,1756.8015916000004,2.102458100009244,,,,104,,,,,right,1,2.0809938000165857,,,,,,negar,2023-07-18_12h41.56.484,Rewa's Exp,2023.1.2,59.96857646402143,
Countdown_1.5s.mp4,green,red,left,Countdown_1.5s.jpg,15,0,15,0,,,,,,,,,0,5,5,3,,,,1760.6854515000014,1761.8182228999794,1.1327713999780826,,,,105,,,,,left,1,1.1022143999580294,,,,,,negar,2023-07-18_12h41.56.484,Rewa's Exp,2023.1.2,59.96857646402143,
,,,,,15,0,15,0,,,,,,,,,,,,,,,,,,,,,,,,,,,,,,1768.5360992000205,1768.5360992000205,1768.5360992000205,space,2.0351816000184044,negar,2023-07-18_12h41.56.484,Rewa's Exp,2023.1.2,59.96857646402143,
Countdown_2.5s.mp4,green,red,left,Countdown_2.5s.jpg,16,0,16,0,0,0,0,4,,,,,,,,,,,,1767.8126597999944,1770.2849090999807,2.472249299986288,left,1,2.4401162999565713,106,,,,,,,,,,,,,negar,2023-07-18_12h41.56.484,Rewa's Exp,2023.1.2,59.96857646402143,
Countdown_1.5s.mp4,green,red,left,Countdown_1.5s.jpg,16,0,16,0,0,1,1,3,,,,,,,,,,,,1774.2120373999933,1775.6850122000324,1.4729748000390828,left,1,1.4487795000313781,107,,,,,,,,,,,,,negar,2023-07-18_12h41.56.484,Rewa's Exp,2023.1.2,59.96857646402143,
Countdown_2.5s.mp4,red,green,right,Countdown_2.5s.jpg,16,0,16,0,0,2,2,0,,,,,,,,,,,,1779.6081616000156,1781.651623599988,2.043461999972351,right,1,2.0113207999966107,108,,,,,,,,,,,,,negar,2023-07-18_12h41.56.484,Rewa's Exp,2023.1.2,59.96857646402143,
Countdown_2s.mp4,green,red,left,Countdown_2s.jpg,16,0,16,0,0,3,3,5,,,,,,,,,,,,1785.5712779000169,1787.4851790000102,1.9139010999933816,left,1,1.8899674999993294,109,,,,,,,,,,,,,negar,2023-07-18_12h41.56.484,Rewa's Exp,2023.1.2,59.96857646402143,
Countdown_2s.mp4,red,green,right,Countdown_2s.jpg,16,0,16,0,0,4,4,1,,,,,,,,,,,,1791.4518992999801,1793.4182338999817,1.9663346000015736,None,0,,107,,,,,,,,,,,,,negar,2023-07-18_12h41.56.484,Rewa's Exp,2023.1.2,59.96857646402143,
Countdown_1.5s.mp4,red,green,right,Countdown_1.5s.jpg,16,0,16,0,0,5,5,2,,,,,,,,,,,,1797.329783299996,1798.6021533000167,1.2723700000206009,right,1,1.2514053999911994,108,,,,,,,,,,,,,negar,2023-07-18_12h41.56.484,Rewa's Exp,2023.1.2,59.96857646402143,
Countdown_2s.mp4,green,red,left,Countdown_2s.jpg,16,0,16,0,,,,,0,0,0,5,,,,,,,,1802.55922559998,1804.3851928000222,1.8259672000422142,,,,109,1808.149523900007,left,1,1.8049828000366688,,,,,,,,,negar,2023-07-18_12h41.56.484,Rewa's Exp,2023.1.2,59.96857646402143,
Countdown_1.5s.mp4,green,red,left,Countdown_1.5s.jpg,16,0,16,0,,,,,0,1,1,3,,,,,,,,1808.3080561999814,1809.6849900999805,1.3769338999991305,,,,110,1813.8984173000208,left,1,1.3515921999933198,,,,,,,,,negar,2023-07-18_12h41.56.484,Rewa's Exp,2023.1.2,59.96857646402143,
Countdown_2.5s.mp4,red,green,right,Countdown_2.5s.jpg,16,0,16,0,,,,,0,2,2,0,,,,,,,,1813.5828591000172,1815.785142000008,2.202282899990678,,,,111,1819.1730826999992,right,1,2.173384999972768,,,,,,,,,negar,2023-07-18_12h41.56.484,Rewa's Exp,2023.1.2,59.96857646402143,
Countdown_2.5s.mp4,green,red,left,Countdown_2.5s.jpg,16,0,16,0,,,,,0,3,3,4,,,,,,,,1819.6877308000112,1821.901825500012,2.2140947000007145,,,,112,1825.2779799000127,left,1,2.1879181999829598,,,,,,,,,negar,2023-07-18_12h41.56.484,Rewa's Exp,2023.1.2,59.96857646402143,
Countdown_2s.mp4,red,green,right,Countdown_2s.jpg,16,0,16,0,,,,,0,4,4,1,,,,,,,,1825.8053135999944,1827.5018049000064,1.696491300011985,,,,113,1831.395510000002,right,1,1.6792324999696575,,,,,,,,,negar,2023-07-18_12h41.56.484,Rewa's Exp,2023.1.2,59.96857646402143,
Countdown_1.5s.mp4,red,green,right,Countdown_1.5s.jpg,16,0,16,0,,,,,0,5,5,2,,,,,,,,1831.4096210999996,1832.7518388000317,1.3422177000320517,,,,114,1836.9998545999988,right,1,1.3142474999767728,,,,,,,,,negar,2023-07-18_12h41.56.484,Rewa's Exp,2023.1.2,59.96857646402143,
Countdown_2.5s.mp4,green,red,left,Countdown_2.5s.jpg,16,0,16,0,,,,,,,,,0,0,0,4,,,,1836.674015800003,1838.7021960000275,2.028180200024508,,,,115,,,,,left,1,2.0027657999889925,,,,,,negar,2023-07-18_12h41.56.484,Rewa's Exp,2023.1.2,59.96857646402143,
Countdown_1.5s.mp4,red,green,right,Countdown_1.5s.jpg,16,0,16,0,,,,,,,,,0,1,1,2,,,,1842.6387855000212,1843.9183394000283,1.2795539000071585,,,,116,,,,,right,1,1.262165499967523,,,,,,negar,2023-07-18_12h41.56.484,Rewa's Exp,2023.1.2,59.96857646402143,
Countdown_2.5s.mp4,red,green,right,Countdown_2.5s.jpg,16,0,16,0,,,,,,,,,0,2,2,0,,,,1847.8513508000178,1850.0518468000228,2.2004960000049323,,,,114,,,,,left,0,2.1689876000164077,,,,,,negar,2023-07-18_12h41.56.484,Rewa's Exp,2023.1.2,59.96857646402143,
Countdown_2s.mp4,green,red,left,Countdown_2s.jpg,16,0,16,0,,,,,,,,,0,3,3,5,,,,1853.97169570002,1855.6350320000201,1.6633363000000827,,,,112,,,,,right,0,1.6406854999950156,,,,,,negar,2023-07-18_12h41.56.484,Rewa's Exp,2023.1.2,59.96857646402143,
Countdown_2s.mp4,red,green,right,Countdown_2s.jpg,16,0,16,0,,,,,,,,,0,4,4,1,,,,1859.5684678999824,1861.2853271000204,1.7168592000380158,,,,110,,,,,left,0,1.6843661000020802,,,,,,negar,2023-07-18_12h41.56.484,Rewa's Exp,2023.1.2,59.96857646402143,
Countdown_1.5s.mp4,green,red,left,Countdown_1.5s.jpg,16,0,16,0,,,,,,,,,0,5,5,3,,,,1865.2532559999963,1866.5183595999843,1.265103599987924,,,,111,,,,,left,1,1.2386427999590524,,,,,,negar,2023-07-18_12h41.56.484,Rewa's Exp,2023.1.2,59.96857646402143,
,,,,,16,0,16,0,,,,,,,,,,,,,,,,,,,,,,,,,,,,,,1873.2198215000099,1873.2198215000099,1873.2198215000099,space,11.919022499991115,negar,2023-07-18_12h41.56.484,Rewa's Exp,2023.1.2,59.96857646402143,
Countdown_2.5s.mp4,red,green,right,Countdown_2.5s.jpg,17,0,17,0,0,0,0,0,,,,,,,,,,,,1882.3514587000245,1884.4019682999933,2.050509599968791,right,1,2.0202639999915846,112,,,,,,,,,,,,,negar,2023-07-18_12h41.56.484,Rewa's Exp,2023.1.2,59.96857646402143,
Countdown_2s.mp4,green,red,left,Countdown_2s.jpg,17,0,17,0,0,1,1,5,,,,,,,,,,,,1888.365771199984,1890.1019386000116,1.7361674000276253,left,1,1.7101965000038035,113,,,,,,,,,,,,,negar,2023-07-18_12h41.56.484,Rewa's Exp,2023.1.2,59.96857646402143,
Countdown_1.5s.mp4,red,green,right,Countdown_1.5s.jpg,17,0,17,0,0,2,2,2,,,,,,,,,,,,1893.986650899984,1895.4518346000114,1.46518370002741,right,1,1.432844800001476,114,,,,,,,,,,,,,negar,2023-07-18_12h41.56.484,Rewa's Exp,2023.1.2,59.96857646402143,
Countdown_1.5s.mp4,green,red,left,Countdown_1.5s.jpg,17,0,17,0,0,3,3,3,,,,,,,,,,,,1899.3883726000204,1900.8351618000306,1.4467892000102438,left,1,1.4234711999888532,115,,,,,,,,,,,,,negar,2023-07-18_12h41.56.484,Rewa's Exp,2023.1.2,59.96857646402143,
Countdown_2.5s.mp4,green,red,left,Countdown_2.5s.jpg,17,0,17,0,0,4,4,4,,,,,,,,,,,,1904.7342854000162,1906.8854769000318,2.151191500015557,left,1,2.1263643000274897,116,,,,,,,,,,,,,negar,2023-07-18_12h41.56.484,Rewa's Exp,2023.1.2,59.96857646402143,
Countdown_2s.mp4,red,green,right,Countdown_2s.jpg,17,0,17,0,0,5,5,1,,,,,,,,,,,,1910.8497288000071,1912.7353366999887,1.8856078999815509,right,1,1.8673296999768354,117,,,,,,,,,,,,,negar,2023-07-18_12h41.56.484,Rewa's Exp,2023.1.2,59.96857646402143,
Countdown_2s.mp4,green,red,left,Countdown_2s.jpg,17,0,17,0,,,,,0,0,0,5,,,,,,,,1916.6564616999822,1918.5019643999985,1.8455027000163682,,,,118,1922.2467444000067,left,1,1.820801299996674,,,,,,,,,negar,2023-07-18_12h41.56.484,Rewa's Exp,2023.1.2,59.96857646402143,
Countdown_1.5s.mp4,red,green,right,Countdown_1.5s.jpg,17,0,17,0,,,,,0,1,1,2,,,,,,,,1922.3997532000067,1923.735430300003,1.3356770999962464,,,,119,1927.990003200015,right,1,1.3178903000080027,,,,,,,,,negar,2023-07-18_12h41.56.484,Rewa's Exp,2023.1.2,59.96857646402143,
Countdown_2.5s.mp4,green,red,left,Countdown_2.5s.jpg,17,0,17,0,,,,,0,2,2,4,,,,,,,,1927.6323000999982,1930.051951500005,2.419651400006842,,,,120,1933.2217691999977,left,1,2.388186299998779,,,,,,,,,negar,2023-07-18_12h41.56.484,Rewa's Exp,2023.1.2,59.96857646402143,
Countdown_1.5s.mp4,green,red,left,Countdown_1.5s.jpg,17,0,17,0,,,,,0,3,3,3,,,,,,,,1933.9364107000292,1935.2686960999854,1.332285399956163,,,,121,1939.526698599977,left,1,1.3087833999888971,,,,,,,,,negar,2023-07-18_12h41.56.484,Rewa's Exp,2023.1.2,59.96857646402143,
Countdown_2s.mp4,red,green,right,Countdown_2s.jpg,17,0,17,0,,,,,0,4,4,1,,,,,,,,1939.221626500017,1941.16870129999,1.947074799973052,,,,122,1944.8119586000103,right,1,1.9191398000111803,,,,,,,,,negar,2023-07-18_12h41.56.484,Rewa's Exp,2023.1.2,59.96857646402143,
Countdown_2.5s.mp4,red,green,right,Countdown_2.5s.jpg,17,0,17,0,,,,,0,5,5,0,,,,,,,,1945.102843999979,1947.3517926000059,2.248948600026779,,,,123,1950.6931389999809,right,1,2.222218499984592,,,,,,,,,negar,2023-07-18_12h41.56.484,Rewa's Exp,2023.1.2,59.96857646402143,
Countdown_1.5s.mp4,red,green,right,Countdown_1.5s.jpg,17,0,17,0,,,,,,,,,0,0,0,2,,,,1951.2935906000203,1952.6520712000201,1.3584805999998935,,,,121,,,,,left,0,1.3358905999921262,,,,,,negar,2023-07-18_12h41.56.484,Rewa's Exp,2023.1.2,59.96857646402143,
Countdown_2.5s.mp4,green,red,left,Countdown_2.5s.jpg,17,0,17,0,,,,,,,,,0,1,1,4,,,,1956.5665987000102,1958.9189271000214,2.3523284000111744,,,,122,,,,,left,1,2.325926400022581,,,,,,negar,2023-07-18_12h41.56.484,Rewa's Exp,2023.1.2,59.96857646402143,
Countdown_1.5s.mp4,green,red,left,Countdown_1.5s.jpg,17,0,17,0,,,,,,,,,0,2,2,3,,,,1962.848134400032,1964.0685693999985,1.2204349999665283,,,,123,,,,,left,1,1.197181100025773,,,,,,negar,2023-07-18_12h41.56.484,Rewa's Exp,2023.1.2,59.96857646402143,
Countdown_2s.mp4,green,red,left,Countdown_2s.jpg,17,0,17,0,,,,,,,,,0,3,3,5,,,,1967.9861189000076,1969.6857946999953,1.6996757999877445,,,,124,,,,,left,1,1.6668754999991506,,,,,,negar,2023-07-18_12h41.56.484,Rewa's Exp,2023.1.2,59.96857646402143,
Countdown_2s.mp4,red,green,right,Countdown_2s.jpg,17,0,17,0,,,,,,,,,0,4,4,1,,,,1973.660067800025,1975.3852413999848,1.7251735999598168,,,,125,,,,,right,1,1.7048503999831155,,,,,,negar,2023-07-18_12h41.56.484,Rewa's Exp,2023.1.2,59.96857646402143,
Countdown_2.5s.mp4,red,green,right,Countdown_2.5s.jpg,17,0,17,0,,,,,,,,,0,5,5,0,,,,1979.2692661000183,1981.5686398000107,2.2993736999924295,,,,126,,,,,right,1,2.279833000036888,,,,,,negar,2023-07-18_12h41.56.484,Rewa's Exp,2023.1.2,59.96857646402143,
,,,,,17,0,17,0,,,,,,,,,,,,,,,,,,,,,,,,,,,,,,1988.2866640000138,1988.2866640000138,1988.2866640000138,space,13.228871500003152,negar,2023-07-18_12h41.56.484,Rewa's Exp,2023.1.2,59.96857646402143,
