Countdown,color1,color2,correct,screenshot,trials.thisRepN,trials.thisTrialN,trials.thisN,trials.thisIndex,trials_6040.thisRepN,trials_6040.thisTrialN,trials_6040.thisN,trials_6040.thisIndex,trials_5743.thisRepN,trials_5743.thisTrialN,trials_5743.thisN,trials_5743.thisIndex,trials_5446.thisRepN,trials_5446.thisTrialN,trials_5446.thisN,trials_5446.thisIndex,key_resp_2.started,key_resp_2.keys,key_resp_2.rt,Videoshowstart,Videoshowstop,VideoshowRT,response.keys,response.corr,total_score,response.rt,Left_3.started,response_2.keys,response_2.corr,response_2.rt,response_3.keys,response_3.corr,response_3.rt,text_2.started,text_5.started,text_6.started,key_resp.keys,key_resp.rt,end_2.started,end_2.stopped,participant,date,expName,psychopyVersion,frameRate,
,,,,,,,,,,,,,,,,,,,,,32.29387920000045,space,7.877689499999178,,,,,,,,,,,,,,,,,,,,,,Rachel,2023-07-20_15h51.34.302,Rewa's Exp,2023.1.2,59.9972521256645,
Countdown_1.5s.mp4,green,red,left,Countdown_1.5s.jpg,0,0,0,0,0,0,0,3,,,,,,,,,,,,29.285866299999725,30.74821840000004,1.4623521000003166,None,0,-2,,,,,,,,,,,,,,,,Rachel,2023-07-20_15h51.34.302,Rewa's Exp,2023.1.2,59.9972521256645,
Countdown_2.5s.mp4,green,red,left,Countdown_2.5s.jpg,0,0,0,0,0,1,1,4,,,,,,,,,,,,34.73153999999977,35.74825179999971,1.016711799999939,right,0,-4,0.9838042000001224,,,,,,,,,,,,,,,Rachel,2023-07-20_15h51.34.302,Rewa's Exp,2023.1.2,59.9972521256645,
Countdown_2s.mp4,green,red,left,Countdown_2s.jpg,0,0,0,0,0,2,2,5,,,,,,,,,,,,39.69723689999955,40.515163799999755,0.8179269000002023,left,1,-3,0.7941851999985374,,,,,,,,,,,,,,,Rachel,2023-07-20_15h51.34.302,Rewa's Exp,2023.1.2,59.9972521256645,
Countdown_1.5s.mp4,red,green,right,Countdown_1.5s.jpg,0,0,0,0,0,3,3,2,,,,,,,,,,,,44.416058599999815,45.44873149999967,1.0326728999998522,left,0,-5,1.001902799999698,,,,,,,,,,,,,,,Rachel,2023-07-20_15h51.34.302,Rewa's Exp,2023.1.2,59.9972521256645,
Countdown_2s.mp4,red,green,right,Countdown_2s.jpg,0,0,0,0,0,4,4,1,,,,,,,,,,,,49.38106400000015,50.36499949999961,0.9839354999994612,right,1,-4,0.9564516999998887,,,,,,,,,,,,,,,Rachel,2023-07-20_15h51.34.302,Rewa's Exp,2023.1.2,59.9972521256645,
Countdown_2.5s.mp4,red,green,right,Countdown_2.5s.jpg,0,0,0,0,0,5,5,0,,,,,,,,,,,,54.26246269999956,55.99835929999972,1.73589660000016,right,1,-3,1.7152441999996881,,,,,,,,,,,,,,,Rachel,2023-07-20_15h51.34.302,Rewa's Exp,2023.1.2,59.9972521256645,
Countdown_2.5s.mp4,green,red,left,Countdown_2.5s.jpg,0,0,0,0,,,,,0,0,0,4,,,,,,,,59.7322193,61.09831750000012,1.366098200000124,,,-5,,73.30103220000001,right,0,1.3334122999985993,,,,,,,,,,,Rachel,2023-07-20_15h51.34.302,Rewa's Exp,2023.1.2,59.9972521256645,
Countdown_2s.mp4,green,red,left,Countdown_2s.jpg,0,0,0,0,,,,,0,1,1,5,,,,,,,,65.03330149999965,66.43164290000004,1.3983414000003904,,,-4,,78.6021266000007,left,1,1.3778106999989177,,,,,,,,,,,Rachel,2023-07-20_15h51.34.302,Rewa's Exp,2023.1.2,59.9972521256645,
Countdown_2s.mp4,red,green,right,Countdown_2s.jpg,0,0,0,0,,,,,0,2,2,1,,,,,,,,70.3523968999998,71.38193619999947,1.0295392999996693,,,-3,,83.9212105000006,right,1,1.0107751999994434,,,,,,,,,,,Rachel,2023-07-20_15h51.34.302,Rewa's Exp,2023.1.2,59.9972521256645,
Countdown_1.5s.mp4,red,green,right,Countdown_1.5s.jpg,0,0,0,0,,,,,0,3,3,2,,,,,,,,75.31369649999942,76.13212750000002,0.8184310000006008,,,-2,,88.8824912,right,1,0.7932172999990144,,,,,,,,,,,Rachel,2023-07-20_15h51.34.302,Rewa's Exp,2023.1.2,59.9972521256645,
Countdown_1.5s.mp4,green,red,left,Countdown_1.5s.jpg,0,0,0,0,,,,,0,4,4,3,,,,,,,,80.0353998999999,81.01506040000004,0.9796605000001364,,,-1,,93.60415420000027,left,1,0.9585232999988875,,,,,,,,,,,Rachel,2023-07-20_15h51.34.302,Rewa's Exp,2023.1.2,59.9972521256645,
Countdown_2.5s.mp4,red,green,right,Countdown_2.5s.jpg,0,0,0,0,,,,,0,5,5,0,,,,,,,,84.92482029999974,85.78160729999945,0.8567869999997129,,,0,,98.49352840000029,right,1,0.8373964999991586,,,,,,,,,,,Rachel,2023-07-20_15h51.34.302,Rewa's Exp,2023.1.2,59.9972521256645,
Countdown_2.5s.mp4,green,red,left,Countdown_2.5s.jpg,0,0,0,0,,,,,,,,,0,0,0,4,,,,89.51411110000026,90.4983758999997,0.984264799999437,,,1,,,,,,left,1,0.9608317999991414,,,,,,,,Rachel,2023-07-20_15h51.34.302,Rewa's Exp,2023.1.2,59.9972521256645,
Countdown_2.5s.mp4,red,green,right,Countdown_2.5s.jpg,0,0,0,0,,,,,,,,,0,1,1,0,,,,94.4326629999996,95.43177999999989,0.9991170000002967,,,2,,,,,,right,1,0.9785667999994985,,,,,,,,Rachel,2023-07-20_15h51.34.302,Rewa's Exp,2023.1.2,59.9972521256645,
Countdown_1.5s.mp4,green,red,left,Countdown_1.5s.jpg,0,0,0,0,,,,,,,,,0,2,2,3,,,,99.35654189999968,100.34879809999984,0.9922562000001562,,,3,,,,,,left,1,0.9743811999996979,,,,,,,,Rachel,2023-07-20_15h51.34.302,Rewa's Exp,2023.1.2,59.9972521256645,
Countdown_1.5s.mp4,red,green,right,Countdown_1.5s.jpg,0,0,0,0,,,,,,,,,0,3,3,2,,,,104.3207868999998,105.21509909999986,0.8943122000000585,,,4,,,,,,right,1,0.8655522999997629,,,,,,,,Rachel,2023-07-20_15h51.34.302,Rewa's Exp,2023.1.2,59.9972521256645,
Countdown_2s.mp4,green,red,left,Countdown_2s.jpg,0,0,0,0,,,,,,,,,0,4,4,5,,,,109.12246719999985,110.21510130000024,1.0926341000003958,,,2,,,,,,right,0,1.0633942999984356,,,,,,,,Rachel,2023-07-20_15h51.34.302,Rewa's Exp,2023.1.2,59.9972521256645,
Countdown_2s.mp4,red,green,right,Countdown_2s.jpg,0,0,0,0,,,,,,,,,0,5,5,1,,,,114.12361609999971,115.24812849999944,1.1245123999997304,,,3,,,,,,right,1,1.0942878999994718,,,,,,,,Rachel,2023-07-20_15h51.34.302,Rewa's Exp,2023.1.2,59.9972521256645,
,,,,,0,0,0,0,,,,,,,,,,,,,,,,,,,,,,,,,,,,,,129.9615160000003,129.9615160000003,129.9615160000003,space,6.026557899999716,,,Rachel,2023-07-20_15h51.34.302,Rewa's Exp,2023.1.2,59.9972521256645,
Countdown_2s.mp4,red,green,right,Countdown_2s.jpg,1,0,1,0,0,0,0,1,,,,,,,,,,,,125.24028420000013,126.58167450000019,1.3413903000000573,right,1,4,1.3143109999991793,,,,,,,,,,,,,,,Rachel,2023-07-20_15h51.34.302,Rewa's Exp,2023.1.2,59.9972521256645,
Countdown_1.5s.mp4,green,red,left,Countdown_1.5s.jpg,1,0,1,0,0,1,1,3,,,,,,,,,,,,130.48499979999997,131.38177489999998,0.8967751000000135,left,1,5,0.8772310999984256,,,,,,,,,,,,,,,Rachel,2023-07-20_15h51.34.302,Rewa's Exp,2023.1.2,59.9972521256645,
Countdown_2.5s.mp4,red,green,right,Countdown_2.5s.jpg,1,0,1,0,0,2,2,0,,,,,,,,,,,,135.28439350000008,136.33165329999974,1.0472597999996651,right,1,6,1.0221041999993759,,,,,,,,,,,,,,,Rachel,2023-07-20_15h51.34.302,Rewa's Exp,2023.1.2,59.9972521256645,
Countdown_1.5s.mp4,red,green,right,Countdown_1.5s.jpg,1,0,1,0,0,3,3,2,,,,,,,,,,,,140.25257299999976,141.2651937999999,1.0126208000001498,right,1,7,0.989594899999247,,,,,,,,,,,,,,,Rachel,2023-07-20_15h51.34.302,Rewa's Exp,2023.1.2,59.9972521256645,
Countdown_2.5s.mp4,green,red,left,Countdown_2.5s.jpg,1,0,1,0,0,4,4,4,,,,,,,,,,,,145.14418569999998,146.13173300000017,0.9875473000001875,left,1,8,0.970537999998669,,,,,,,,,,,,,,,Rachel,2023-07-20_15h51.34.302,Rewa's Exp,2023.1.2,59.9972521256645,
Countdown_2s.mp4,green,red,left,Countdown_2s.jpg,1,0,1,0,0,5,5,5,,,,,,,,,,,,150.06905839999945,151.16497030000028,1.0959119000008286,left,1,9,1.077955299999303,,,,,,,,,,,,,,,Rachel,2023-07-20_15h51.34.302,Rewa's Exp,2023.1.2,59.9972521256645,
Countdown_1.5s.mp4,green,red,left,Countdown_1.5s.jpg,1,0,1,0,,,,,0,0,0,3,,,,,,,,155.0827959999997,156.11528780000026,1.032491800000571,,,7,,168.6515984000007,right,0,0.9999811999996382,,,,,,,,,,,Rachel,2023-07-20_15h51.34.302,Rewa's Exp,2023.1.2,59.9972521256645,
Countdown_2.5s.mp4,green,red,left,Countdown_2.5s.jpg,1,0,1,0,,,,,0,1,1,4,,,,,,,,160.06289259999994,161.08173799999986,1.0188453999999183,,,8,,173.63170570000057,left,1,0.9951179999998203,,,,,,,,,,,Rachel,2023-07-20_15h51.34.302,Rewa's Exp,2023.1.2,59.9972521256645,
Countdown_1.5s.mp4,red,green,right,Countdown_1.5s.jpg,1,0,1,0,,,,,0,2,2,2,,,,,,,,164.99422820000018,165.79860910000025,0.8043809000000692,,,9,,178.56298049999987,right,1,0.7764038999994227,,,,,,,,,,,Rachel,2023-07-20_15h51.34.302,Rewa's Exp,2023.1.2,59.9972521256645,
Countdown_2s.mp4,red,green,right,Countdown_2s.jpg,1,0,1,0,,,,,0,3,3,1,,,,,,,,169.7110407,170.68204629999946,0.9710055999994438,,,10,,183.27984560000004,right,1,0.938595799999348,,,,,,,,,,,Rachel,2023-07-20_15h51.34.302,Rewa's Exp,2023.1.2,59.9972521256645,
Countdown_2.5s.mp4,red,green,right,Countdown_2.5s.jpg,1,0,1,0,,,,,0,4,4,0,,,,,,,,174.6370522999996,175.76533089999975,1.128278600000158,,,11,,188.20566130000043,right,1,1.1019554999993488,,,,,,,,,,,Rachel,2023-07-20_15h51.34.302,Rewa's Exp,2023.1.2,59.9972521256645,
Countdown_2s.mp4,green,red,left,Countdown_2s.jpg,1,0,1,0,,,,,0,5,5,5,,,,,,,,179.67687000000024,180.6983682,1.021498199999769,,,12,,193.24564379999993,left,1,0.9985373999988951,,,,,,,,,,,Rachel,2023-07-20_15h51.34.302,Rewa's Exp,2023.1.2,59.9972521256645,
Countdown_2s.mp4,green,red,left,Countdown_2s.jpg,1,0,1,0,,,,,,,,,0,0,0,5,,,,184.59927009999956,186.04896949999966,1.4496994000000996,,,13,,,,,,left,1,1.4285796999984086,,,,,,,,Rachel,2023-07-20_15h51.34.302,Rewa's Exp,2023.1.2,59.9972521256645,
Countdown_2.5s.mp4,green,red,left,Countdown_2.5s.jpg,1,0,1,0,,,,,,,,,0,1,1,4,,,,189.97007769999982,191.33206939999945,1.3619916999996349,,,14,,,,,,left,1,1.3365147999984401,,,,,,,,Rachel,2023-07-20_15h51.34.302,Rewa's Exp,2023.1.2,59.9972521256645,
Countdown_1.5s.mp4,red,green,right,Countdown_1.5s.jpg,1,0,1,0,,,,,,,,,0,2,2,2,,,,195.23669919999975,196.09848319999946,0.8617839999997159,,,15,,,,,,right,1,0.8370988999986366,,,,,,,,Rachel,2023-07-20_15h51.34.302,Rewa's Exp,2023.1.2,59.9972521256645,
Countdown_2s.mp4,red,green,right,Countdown_2s.jpg,1,0,1,0,,,,,,,,,0,3,3,1,,,,200.0032999999994,201.2151861000002,1.211886100000811,,,16,,,,,,right,1,1.18297899999925,,,,,,,,Rachel,2023-07-20_15h51.34.302,Rewa's Exp,2023.1.2,59.9972521256645,
Countdown_1.5s.mp4,green,red,left,Countdown_1.5s.jpg,1,0,1,0,,,,,,,,,0,4,4,3,,,,205.1688991000001,206.08227970000007,0.9133805999999822,,,17,,,,,,left,1,0.8809011999992435,,,,,,,,Rachel,2023-07-20_15h51.34.302,Rewa's Exp,2023.1.2,59.9972521256645,
Countdown_2.5s.mp4,red,green,right,Countdown_2.5s.jpg,1,0,1,0,,,,,,,,,0,5,5,0,,,,210.01629159999993,211.28178659999958,1.265494999999646,,,15,,,,,,left,0,1.2339024999992034,,,,,,,,Rachel,2023-07-20_15h51.34.302,Rewa's Exp,2023.1.2,59.9972521256645,
,,,,,1,0,1,0,,,,,,,,,,,,,,,,,,,,,,,,,,,,,,225.97851660000015,225.97851660000015,225.97851660000015,space,3.3771325999996407,,,Rachel,2023-07-20_15h51.34.302,Rewa's Exp,2023.1.2,59.9972521256645,
Countdown_1.5s.mp4,green,red,left,Countdown_1.5s.jpg,2,0,2,0,0,0,0,3,,,,,,,,,,,,218.60291450000022,219.53199870000026,0.9290842000000339,left,1,16,0.9042611999993824,,,,,,,,,,,,,,,Rachel,2023-07-20_15h51.34.302,Rewa's Exp,2023.1.2,59.9972521256645,
Countdown_2s.mp4,red,green,right,Countdown_2s.jpg,2,0,2,0,0,1,1,1,,,,,,,,,,,,223.47974350000004,224.28184499999952,0.8021014999994804,right,1,17,0.7705824999984543,,,,,,,,,,,,,,,Rachel,2023-07-20_15h51.34.302,Rewa's Exp,2023.1.2,59.9972521256645,
Countdown_2.5s.mp4,green,red,left,Countdown_2.5s.jpg,2,0,2,0,0,2,2,4,,,,,,,,,,,,228.21360379999987,229.41506329999993,1.2014595000000554,left,1,18,1.1730027999992672,,,,,,,,,,,,,,,Rachel,2023-07-20_15h51.34.302,Rewa's Exp,2023.1.2,59.9972521256645,
Countdown_2s.mp4,green,red,left,Countdown_2s.jpg,2,0,2,0,0,3,3,5,,,,,,,,,,,,233.33404229999996,234.39881989999958,1.0647775999996156,left,1,19,1.044830899999397,,,,,,,,,,,,,,,Rachel,2023-07-20_15h51.34.302,Rewa's Exp,2023.1.2,59.9972521256645,
Countdown_2.5s.mp4,red,green,right,Countdown_2.5s.jpg,2,0,2,0,0,4,4,0,,,,,,,,,,,,238.37314270000024,239.5986981999995,1.2255554999992455,right,1,20,1.2064807999995537,,,,,,,,,,,,,,,Rachel,2023-07-20_15h51.34.302,Rewa's Exp,2023.1.2,59.9972521256645,
Countdown_1.5s.mp4,red,green,right,Countdown_1.5s.jpg,2,0,2,0,0,5,5,2,,,,,,,,,,,,243.53395999999975,244.2985448999998,0.7645849000000453,right,1,21,0.7331356999993659,,,,,,,,,,,,,,,Rachel,2023-07-20_15h51.34.302,Rewa's Exp,2023.1.2,59.9972521256645,
Countdown_1.5s.mp4,red,green,right,Countdown_1.5s.jpg,2,0,2,0,,,,,0,0,0,2,,,,,,,,248.21596399999999,248.88212829999975,0.6661642999997639,,,22,,261.7847491000002,right,1,0.6342427999998108,,,,,,,,,,,Rachel,2023-07-20_15h51.34.302,Rewa's Exp,2023.1.2,59.9972521256645,
Countdown_1.5s.mp4,green,red,left,Countdown_1.5s.jpg,2,0,2,0,,,,,0,1,1,3,,,,,,,,252.7715035000001,253.61535339999955,0.8438498999994408,,,23,,266.34033160000035,left,1,0.8148315999987972,,,,,,,,,,,Rachel,2023-07-20_15h51.34.302,Rewa's Exp,2023.1.2,59.9972521256645,
Countdown_2.5s.mp4,green,red,left,Countdown_2.5s.jpg,2,0,2,0,,,,,0,2,2,4,,,,,,,,257.5214851999999,258.54901400000017,1.0275288000002547,,,24,,271.09024190000036,left,1,1.0018616999996084,,,,,,,,,,,Rachel,2023-07-20_15h51.34.302,Rewa's Exp,2023.1.2,59.9972521256645,
Countdown_2s.mp4,green,red,left,Countdown_2s.jpg,2,0,2,0,,,,,0,3,3,5,,,,,,,,262.4906863999995,263.66541640000014,1.1747300000006362,,,25,,276.0595131,left,1,1.14408419999927,,,,,,,,,,,Rachel,2023-07-20_15h51.34.302,Rewa's Exp,2023.1.2,59.9972521256645,
Countdown_2s.mp4,red,green,right,Countdown_2s.jpg,2,0,2,0,,,,,0,4,4,1,,,,,,,,267.56070290000025,268.2522592999994,0.6915563999991718,,,26,,281.1295297000006,right,1,0.6413321999989421,,,,,,,,,,,Rachel,2023-07-20_15h51.34.302,Rewa's Exp,2023.1.2,59.9972521256645,
Countdown_2.5s.mp4,red,green,right,Countdown_2.5s.jpg,2,0,2,0,,,,,0,5,5,0,,,,,,,,272.1518248000002,273.8322171,1.6803922999997667,,,27,,285.7206266000003,right,1,1.6502161999987948,,,,,,,,,,,Rachel,2023-07-20_15h51.34.302,Rewa's Exp,2023.1.2,59.9972521256645,
Countdown_1.5s.mp4,green,red,left,Countdown_1.5s.jpg,2,0,2,0,,,,,,,,,0,0,0,3,,,,277.73920009999983,278.56545000000006,0.8262499000002208,,,28,,,,,,left,1,0.8078228999993371,,,,,,,,Rachel,2023-07-20_15h51.34.302,Rewa's Exp,2023.1.2,59.9972521256645,
Countdown_2s.mp4,green,red,left,Countdown_2s.jpg,2,0,2,0,,,,,,,,,0,1,1,5,,,,282.4538883999994,283.56585600000017,1.111967600000753,,,26,,,,,,right,0,1.0926935999987109,,,,,,,,Rachel,2023-07-20_15h51.34.302,Rewa's Exp,2023.1.2,59.9972521256645,
Countdown_2s.mp4,red,green,right,Countdown_2s.jpg,2,0,2,0,,,,,,,,,0,2,2,1,,,,287.50532060000023,288.51546210000015,1.0101414999999179,,,27,,,,,,right,1,0.9779181999992943,,,,,,,,Rachel,2023-07-20_15h51.34.302,Rewa's Exp,2023.1.2,59.9972521256645,
Countdown_2.5s.mp4,red,green,right,Countdown_2.5s.jpg,2,0,2,0,,,,,,,,,0,3,3,0,,,,292.4164179999998,293.5657833999994,1.149365399999624,,,28,,,,,,right,1,1.1315329999988535,,,,,,,,Rachel,2023-07-20_15h51.34.302,Rewa's Exp,2023.1.2,59.9972521256645,
Countdown_1.5s.mp4,red,green,right,Countdown_1.5s.jpg,2,0,2,0,,,,,,,,,0,4,4,2,,,,297.4987003999995,298.49878720000015,1.0000868000006449,,,29,,,,,,right,1,0.975596599999335,,,,,,,,Rachel,2023-07-20_15h51.34.302,Rewa's Exp,2023.1.2,59.9972521256645,
Countdown_2.5s.mp4,green,red,left,Countdown_2.5s.jpg,2,0,2,0,,,,,,,,,0,5,5,4,,,,302.4088495999995,303.54881209999985,1.1399625000003653,,,27,,,,,,right,0,1.1136281999997664,,,,,,,,Rachel,2023-07-20_15h51.34.302,Rewa's Exp,2023.1.2,59.9972521256645,
,,,,,2,0,2,0,,,,,,,,,,,,,,,,,,,,,,,,,,,,,,318.2452039,318.2452039,318.2452039,space,6.575057299998662,,,Rachel,2023-07-20_15h51.34.302,Rewa's Exp,2023.1.2,59.9972521256645,
Countdown_1.5s.mp4,green,red,left,Countdown_1.5s.jpg,3,0,3,0,0,0,0,3,,,,,,,,,,,,314.0989026999996,314.8987513000002,0.7998486000005869,left,1,28,0.7758772999995927,,,,,,,,,,,,,,,Rachel,2023-07-20_15h51.34.302,Rewa's Exp,2023.1.2,59.9972521256645,
Countdown_2.5s.mp4,green,red,left,Countdown_2.5s.jpg,3,0,3,0,0,1,1,4,,,,,,,,,,,,318.85075940000024,320.0654294999995,1.214670099999239,left,1,29,1.183695899999293,,,,,,,,,,,,,,,Rachel,2023-07-20_15h51.34.302,Rewa's Exp,2023.1.2,59.9972521256645,
Countdown_2.5s.mp4,red,green,right,Countdown_2.5s.jpg,3,0,3,0,0,2,2,0,,,,,,,,,,,,323.9696320000003,324.9658400999997,0.9962080999994214,right,1,30,0.9685057999995479,,,,,,,,,,,,,,,Rachel,2023-07-20_15h51.34.302,Rewa's Exp,2023.1.2,59.9972521256645,
Countdown_2s.mp4,red,green,right,Countdown_2s.jpg,3,0,3,0,0,3,3,1,,,,,,,,,,,,328.9276353999994,329.8489757999996,0.9213404000001901,right,1,31,0.890727799999695,,,,,,,,,,,,,,,Rachel,2023-07-20_15h51.34.302,Rewa's Exp,2023.1.2,59.9972521256645,
Countdown_2s.mp4,green,red,left,Countdown_2s.jpg,3,0,3,0,0,4,4,5,,,,,,,,,,,,333.7684122999999,334.6990286999999,0.9306163999999626,left,1,32,0.9065364999987651,,,,,,,,,,,,,,,Rachel,2023-07-20_15h51.34.302,Rewa's Exp,2023.1.2,59.9972521256645,
Countdown_1.5s.mp4,red,green,right,Countdown_1.5s.jpg,3,0,3,0,0,5,5,2,,,,,,,,,,,,338.6409483999996,339.24886199999946,0.6079135999998471,right,1,33,0.576749099999688,,,,,,,,,,,,,,,Rachel,2023-07-20_15h51.34.302,Rewa's Exp,2023.1.2,59.9972521256645,
Countdown_1.5s.mp4,green,red,left,Countdown_1.5s.jpg,3,0,3,0,,,,,0,0,0,3,,,,,,,,343.17522759999974,343.98222160000023,0.8069940000004863,,,34,,356.7440333000004,left,1,0.7796424999987721,,,,,,,,,,,Rachel,2023-07-20_15h51.34.302,Rewa's Exp,2023.1.2,59.9972521256645,
Countdown_2s.mp4,red,green,right,Countdown_2s.jpg,3,0,3,0,,,,,0,1,1,1,,,,,,,,347.90204149999954,348.4655931999996,0.5635517000000618,,,35,,361.47084730000006,right,1,0.5406097999994017,,,,,,,,,,,Rachel,2023-07-20_15h51.34.302,Rewa's Exp,2023.1.2,59.9972521256645,
Countdown_2.5s.mp4,green,red,left,Countdown_2.5s.jpg,3,0,3,0,,,,,0,2,2,4,,,,,,,,352.37405149999995,353.1820484,0.8079969000000347,,,36,,365.9428510000007,left,1,0.7901349999992817,,,,,,,,,,,Rachel,2023-07-20_15h51.34.302,Rewa's Exp,2023.1.2,59.9972521256645,
Countdown_2.5s.mp4,red,green,right,Countdown_2.5s.jpg,3,0,3,0,,,,,0,3,3,0,,,,,,,,357.0824241999999,357.78227270000025,0.6998485000003711,,,37,,370.65119180000056,right,1,0.671485599999869,,,,,,,,,,,Rachel,2023-07-20_15h51.34.302,Rewa's Exp,2023.1.2,59.9972521256645,
Countdown_2s.mp4,green,red,left,Countdown_2s.jpg,3,0,3,0,,,,,0,4,4,5,,,,,,,,361.6887104999996,362.5824206999996,0.8937101999999868,,,38,,375.2574835000005,left,1,0.8658393999994587,,,,,,,,,,,Rachel,2023-07-20_15h51.34.302,Rewa's Exp,2023.1.2,59.9972521256645,
Countdown_1.5s.mp4,red,green,right,Countdown_1.5s.jpg,3,0,3,0,,,,,0,5,5,2,,,,,,,,366.4865103000002,367.2657806999996,0.7792703999994046,,,36,,380.05515790000027,left,0,0.7564347999987149,,,,,,,,,,,Rachel,2023-07-20_15h51.34.302,Rewa's Exp,2023.1.2,59.9972521256645,
Countdown_2.5s.mp4,red,green,right,Countdown_2.5s.jpg,3,0,3,0,,,,,,,,,0,0,0,0,,,,371.15214730000025,372.2823050999996,1.1301577999993242,,,34,,,,,,left,0,1.106784599999628,,,,,,,,Rachel,2023-07-20_15h51.34.302,Rewa's Exp,2023.1.2,59.9972521256645,
Countdown_1.5s.mp4,green,red,left,Countdown_1.5s.jpg,3,0,3,0,,,,,,,,,0,1,1,3,,,,376.1927307999995,376.9659093,0.7731785000005402,,,35,,,,,,left,1,0.7460451999986617,,,,,,,,Rachel,2023-07-20_15h51.34.302,Rewa's Exp,2023.1.2,59.9972521256645,
Countdown_2.5s.mp4,green,red,left,Countdown_2.5s.jpg,3,0,3,0,,,,,,,,,0,2,2,4,,,,380.86607099999947,381.8489067999999,0.98283580000043,,,36,,,,,,left,1,0.9615743999993356,,,,,,,,Rachel,2023-07-20_15h51.34.302,Rewa's Exp,2023.1.2,59.9972521256645,
Countdown_2s.mp4,green,red,left,Countdown_2s.jpg,3,0,3,0,,,,,,,,,0,3,3,5,,,,385.7565426000001,386.5656148999997,0.8090722999995705,,,34,,,,,,right,0,0.7813919999989594,,,,,,,,Rachel,2023-07-20_15h51.34.302,Rewa's Exp,2023.1.2,59.9972521256645,
Countdown_1.5s.mp4,red,green,right,Countdown_1.5s.jpg,3,0,3,0,,,,,,,,,0,4,4,2,,,,390.51331930000015,391.26604549999956,0.7527261999994153,,,35,,,,,,right,1,0.7302318999991257,,,,,,,,Rachel,2023-07-20_15h51.34.302,Rewa's Exp,2023.1.2,59.9972521256645,
Countdown_2s.mp4,red,green,right,Countdown_2s.jpg,3,0,3,0,,,,,,,,,0,5,5,1,,,,395.23715449999963,396.38206269999955,1.144908199999918,,,36,,,,,,right,1,1.125356899999133,,,,,,,,Rachel,2023-07-20_15h51.34.302,Rewa's Exp,2023.1.2,59.9972521256645,
,,,,,3,0,3,0,,,,,,,,,,,,,,,,,,,,,,,,,,,,,,411.06195750000006,411.06195750000006,411.06195750000006,space,12.029355899999246,,,Rachel,2023-07-20_15h51.34.302,Rewa's Exp,2023.1.2,59.9972521256645,
Countdown_2.5s.mp4,green,red,left,Countdown_2.5s.jpg,4,0,4,0,0,0,0,4,,,,,,,,,,,,412.3594998999997,413.23244859999977,0.8729487000000518,left,1,37,0.8516138999993927,,,,,,,,,,,,,,,Rachel,2023-07-20_15h51.34.302,Rewa's Exp,2023.1.2,59.9972521256645,
Countdown_1.5s.mp4,green,red,left,Countdown_1.5s.jpg,4,0,4,0,0,1,1,3,,,,,,,,,,,,417.15744040000027,418.1157334999998,0.9582930999995369,left,1,38,0.9331516999991436,,,,,,,,,,,,,,,Rachel,2023-07-20_15h51.34.302,Rewa's Exp,2023.1.2,59.9972521256645,
Countdown_2.5s.mp4,red,green,right,Countdown_2.5s.jpg,4,0,4,0,0,2,2,0,,,,,,,,,,,,422.02765550000004,422.91576369999984,0.888108199999806,right,1,39,0.8640996999984054,,,,,,,,,,,,,,,Rachel,2023-07-20_15h51.34.302,Rewa's Exp,2023.1.2,59.9972521256645,
Countdown_1.5s.mp4,red,green,right,Countdown_1.5s.jpg,4,0,4,0,0,3,3,2,,,,,,,,,,,,426.8360957999994,427.5824404999994,0.7463447000000087,right,1,40,0.7182215999991968,,,,,,,,,,,,,,,Rachel,2023-07-20_15h51.34.302,Rewa's Exp,2023.1.2,59.9972521256645,
Countdown_2s.mp4,green,red,left,Countdown_2s.jpg,4,0,4,0,0,4,4,5,,,,,,,,,,,,431.46232129999953,432.18255039999985,0.7202291000003243,left,1,41,0.6915369999987888,,,,,,,,,,,,,,,Rachel,2023-07-20_15h51.34.302,Rewa's Exp,2023.1.2,59.9972521256645,
Countdown_2s.mp4,red,green,right,Countdown_2s.jpg,4,0,4,0,0,5,5,1,,,,,,,,,,,,436.0898271999995,436.8490462999998,0.7592191000003368,right,1,42,0.7380185999991227,,,,,,,,,,,,,,,Rachel,2023-07-20_15h51.34.302,Rewa's Exp,2023.1.2,59.9972521256645,
Countdown_2s.mp4,red,green,right,Countdown_2s.jpg,4,0,4,0,,,,,0,0,0,1,,,,,,,,440.79065639999953,441.84912239999994,1.0584660000004078,,,43,,454.3593969000003,right,1,1.0359616999994614,,,,,,,,,,,Rachel,2023-07-20_15h51.34.302,Rewa's Exp,2023.1.2,59.9972521256645,
Countdown_1.5s.mp4,red,green,right,Countdown_1.5s.jpg,4,0,4,0,,,,,0,1,1,2,,,,,,,,445.7517584999996,446.6157214999994,0.8639629999997851,,,44,,459.3205260000004,right,1,0.8435946999989028,,,,,,,,,,,Rachel,2023-07-20_15h51.34.302,Rewa's Exp,2023.1.2,59.9972521256645,
Countdown_2.5s.mp4,red,green,right,Countdown_2.5s.jpg,4,0,4,0,,,,,0,2,2,0,,,,,,,,450.4896619000001,451.69891709999956,1.2092551999994612,,,45,,464.0584764000005,right,1,1.1765314999984184,,,,,,,,,,,Rachel,2023-07-20_15h51.34.302,Rewa's Exp,2023.1.2,59.9972521256645,
Countdown_2s.mp4,green,red,left,Countdown_2s.jpg,4,0,4,0,,,,,0,3,3,5,,,,,,,,455.6063001000002,456.54927679999946,0.9429766999992353,,,46,,469.1751099000003,left,1,0.9165443999991112,,,,,,,,,,,Rachel,2023-07-20_15h51.34.302,Rewa's Exp,2023.1.2,59.9972521256645,
Countdown_1.5s.mp4,green,red,left,Countdown_1.5s.jpg,4,0,4,0,,,,,0,4,4,3,,,,,,,,460.44449859999986,461.2991745999998,0.8546759999999267,,,44,,474.0132609000002,right,0,0.8375488999990921,,,,,,,,,,,Rachel,2023-07-20_15h51.34.302,Rewa's Exp,2023.1.2,59.9972521256645,
Countdown_2.5s.mp4,green,red,left,Countdown_2.5s.jpg,4,0,4,0,,,,,0,5,5,4,,,,,,,,465.2205280999997,466.33282429999963,1.1122961999999461,,,45,,478.7892873999999,left,1,1.0871234999995067,,,,,,,,,,,Rachel,2023-07-20_15h51.34.302,Rewa's Exp,2023.1.2,59.9972521256645,
Countdown_2.5s.mp4,red,green,right,Countdown_2.5s.jpg,4,0,4,0,,,,,,,,,0,0,0,0,,,,470.2514526999994,471.34896279999975,1.0975101000003633,,,43,,,,,,left,0,1.072082099999534,,,,,,,,Rachel,2023-07-20_15h51.34.302,Rewa's Exp,2023.1.2,59.9972521256645,
Countdown_1.5s.mp4,red,green,right,Countdown_1.5s.jpg,4,0,4,0,,,,,,,,,0,1,1,2,,,,475.24991339999997,476.06598849999955,0.8160750999995798,,,44,,,,,,right,1,0.7839659999990545,,,,,,,,Rachel,2023-07-20_15h51.34.302,Rewa's Exp,2023.1.2,59.9972521256645,
Countdown_2s.mp4,red,green,right,Countdown_2s.jpg,4,0,4,0,,,,,,,,,0,2,2,1,,,,479.95993009999984,480.9825200999994,1.0225899999995818,,,45,,,,,,right,1,1.002756999999292,,,,,,,,Rachel,2023-07-20_15h51.34.302,Rewa's Exp,2023.1.2,59.9972521256645,
Countdown_1.5s.mp4,green,red,left,Countdown_1.5s.jpg,4,0,4,0,,,,,,,,,0,3,3,3,,,,484.8853174999995,485.8323854999999,0.9470680000003995,,,43,,,,,,right,0,0.925003999999717,,,,,,,,Rachel,2023-07-20_15h51.34.302,Rewa's Exp,2023.1.2,59.9972521256645,
Countdown_2s.mp4,green,red,left,Countdown_2s.jpg,4,0,4,0,,,,,,,,,0,4,4,5,,,,489.7086895000002,490.78236000000015,1.0736704999999347,,,44,,,,,,left,1,1.0458186999985628,,,,,,,,Rachel,2023-07-20_15h51.34.302,Rewa's Exp,2023.1.2,59.9972521256645,
Countdown_2.5s.mp4,green,red,left,Countdown_2.5s.jpg,4,0,4,0,,,,,,,,,0,5,5,4,,,,494.73229249999986,496.01592059999984,1.2836280999999872,,,42,,,,,,right,0,1.2545043999989502,,,,,,,,Rachel,2023-07-20_15h51.34.302,Rewa's Exp,2023.1.2,59.9972521256645,
,,,,,4,0,4,0,,,,,,,,,,,,,,,,,,,,,,,,,,,,,,510.72882030000073,510.72882030000073,510.72882030000073,space,12.85855409999931,,,Rachel,2023-07-20_15h51.34.302,Rewa's Exp,2023.1.2,59.9972521256645,
Countdown_2s.mp4,green,red,left,Countdown_2s.jpg,5,0,5,0,0,0,0,5,,,,,,,,,,,,512.8079474999995,513.9490379999997,1.1410905000002458,left,1,43,1.114257199998974,,,,,,,,,,,,,,,Rachel,2023-07-20_15h51.34.302,Rewa's Exp,2023.1.2,59.9972521256645,
Countdown_1.5s.mp4,green,red,left,Countdown_1.5s.jpg,5,0,5,0,0,1,1,3,,,,,,,,,,,,517.8515425999994,518.8159434999998,0.964400900000328,left,1,44,0.9434744999989562,,,,,,,,,,,,,,,Rachel,2023-07-20_15h51.34.302,Rewa's Exp,2023.1.2,59.9972521256645,
Countdown_1.5s.mp4,red,green,right,Countdown_1.5s.jpg,5,0,5,0,0,2,2,2,,,,,,,,,,,,522.7278890999996,523.4493301000002,0.7214410000005955,right,1,45,0.6900895999988279,,,,,,,,,,,,,,,Rachel,2023-07-20_15h51.34.302,Rewa's Exp,2023.1.2,59.9972521256645,
Countdown_2.5s.mp4,green,red,left,Countdown_2.5s.jpg,5,0,5,0,0,3,3,4,,,,,,,,,,,,527.3647835000002,528.3490436000002,0.9842601000000286,left,1,46,0.9671318999990035,,,,,,,,,,,,,,,Rachel,2023-07-20_15h51.34.302,Rewa's Exp,2023.1.2,59.9972521256645,
Countdown_2.5s.mp4,red,green,right,Countdown_2.5s.jpg,5,0,5,0,0,4,4,0,,,,,,,,,,,,532.2407601999994,533.5992389000003,1.3584787000008873,right,1,47,1.3294571999986147,,,,,,,,,,,,,,,Rachel,2023-07-20_15h51.34.302,Rewa's Exp,2023.1.2,59.9972521256645,
Countdown_2s.mp4,red,green,right,Countdown_2s.jpg,5,0,5,0,0,5,5,1,,,,,,,,,,,,537.5175640999996,538.4329200000002,0.9153559000005771,left,0,45,0.8933653999993112,,,,,,,,,,,,,,,Rachel,2023-07-20_15h51.34.302,Rewa's Exp,2023.1.2,59.9972521256645,
Countdown_1.5s.mp4,red,green,right,Countdown_1.5s.jpg,5,0,5,0,,,,,0,0,0,2,,,,,,,,542.3754539000001,543.1826359999995,0.8071820999994088,,,46,,555.9442770000005,right,1,0.7792454999998881,,,,,,,,,,,Rachel,2023-07-20_15h51.34.302,Rewa's Exp,2023.1.2,59.9972521256645,
Countdown_2s.mp4,red,green,right,Countdown_2s.jpg,5,0,5,0,,,,,0,1,1,1,,,,,,,,547.1084536999997,547.9159672999995,0.8075135999997656,,,47,,560.6772028000005,right,1,0.7902070999989519,,,,,,,,,,,Rachel,2023-07-20_15h51.34.302,Rewa's Exp,2023.1.2,59.9972521256645,
Countdown_1.5s.mp4,green,red,left,Countdown_1.5s.jpg,5,0,5,0,,,,,0,2,2,3,,,,,,,,551.8313810999998,552.5660499999994,0.7346688999996331,,,48,,565.4001635000004,left,1,0.7156094999991183,,,,,,,,,,,Rachel,2023-07-20_15h51.34.302,Rewa's Exp,2023.1.2,59.9972521256645,
Countdown_2.5s.mp4,red,green,right,Countdown_2.5s.jpg,5,0,5,0,,,,,0,3,3,0,,,,,,,,556.4680895000001,557.7659384999997,1.2978489999995872,,,49,,570.0368308000006,right,1,1.2714253999993161,,,,,,,,,,,Rachel,2023-07-20_15h51.34.302,Rewa's Exp,2023.1.2,59.9972521256645,
Countdown_2s.mp4,green,red,left,Countdown_2s.jpg,5,0,5,0,,,,,0,4,4,5,,,,,,,,561.6652552999994,562.5826888000001,0.9174335000006977,,,50,,575.2340782000001,left,1,0.888718099999096,,,,,,,,,,,Rachel,2023-07-20_15h51.34.302,Rewa's Exp,2023.1.2,59.9972521256645,
Countdown_2.5s.mp4,green,red,left,Countdown_2.5s.jpg,5,0,5,0,,,,,0,5,5,4,,,,,,,,566.5030283999995,567.5992362999996,1.0962079000000813,,,51,,580.0717749000005,left,1,1.0757918999997855,,,,,,,,,,,Rachel,2023-07-20_15h51.34.302,Rewa's Exp,2023.1.2,59.9972521256645,
Countdown_2.5s.mp4,red,green,right,Countdown_2.5s.jpg,5,0,5,0,,,,,,,,,0,0,0,0,,,,571.5086676000001,572.8492237999999,1.34055619999981,,,52,,,,,,right,1,1.310021099999176,,,,,,,,Rachel,2023-07-20_15h51.34.302,Rewa's Exp,2023.1.2,59.9972521256645,
Countdown_2.5s.mp4,green,red,left,Countdown_2.5s.jpg,5,0,5,0,,,,,,,,,0,1,1,4,,,,576.7447315,577.6493400999998,0.9046085999998468,,,53,,,,,,left,1,0.8820324999996956,,,,,,,,Rachel,2023-07-20_15h51.34.302,Rewa's Exp,2023.1.2,59.9972521256645,
Countdown_1.5s.mp4,red,green,right,Countdown_1.5s.jpg,5,0,5,0,,,,,,,,,0,2,2,2,,,,581.5418909,582.3160296999995,0.7741387999994913,,,54,,,,,,right,1,0.757124499999918,,,,,,,,Rachel,2023-07-20_15h51.34.302,Rewa's Exp,2023.1.2,59.9972521256645,
Countdown_2s.mp4,red,green,right,Countdown_2s.jpg,5,0,5,0,,,,,,,,,0,3,3,1,,,,586.2644238000003,587.2659962999996,1.0015724999993836,,,55,,,,,,right,1,0.9697736999996778,,,,,,,,Rachel,2023-07-20_15h51.34.302,Rewa's Exp,2023.1.2,59.9972521256645,
Countdown_1.5s.mp4,green,red,left,Countdown_1.5s.jpg,5,0,5,0,,,,,,,,,0,4,4,3,,,,591.1979845999995,592.0160807000002,0.8180961000007301,,,56,,,,,,left,1,0.7968118999997387,,,,,,,,Rachel,2023-07-20_15h51.34.302,Rewa's Exp,2023.1.2,59.9972521256645,
Countdown_2s.mp4,green,red,left,Countdown_2s.jpg,5,0,5,0,,,,,,,,,0,5,5,5,,,,595.9268105000001,596.9492725,1.022461999999905,,,54,,,,,,right,0,1.0039267999991353,,,,,,,,Rachel,2023-07-20_15h51.34.302,Rewa's Exp,2023.1.2,59.9972521256645,
,,,,,5,0,5,0,,,,,,,,,,,,,,,,,,,,,,,,,,,,,,611.6457574000005,611.6457574000005,611.6457574000005,space,9.710412099999303,,,Rachel,2023-07-20_15h51.34.302,Rewa's Exp,2023.1.2,59.9972521256645,
Countdown_2.5s.mp4,green,red,left,Countdown_2.5s.jpg,6,0,6,0,0,0,0,4,,,,,,,,,,,,610.6030783999995,611.7825705999994,1.1794921999999133,left,1,55,1.1597719999990659,,,,,,,,,,,,,,,Rachel,2023-07-20_15h51.34.302,Rewa's Exp,2023.1.2,59.9972521256645,
Countdown_2s.mp4,red,green,right,Countdown_2s.jpg,6,0,6,0,0,1,1,1,,,,,,,,,,,,615.6659423000001,616.4170404999995,0.7510981999994328,right,1,56,0.729177899998831,,,,,,,,,,,,,,,Rachel,2023-07-20_15h51.34.302,Rewa's Exp,2023.1.2,59.9972521256645,
Countdown_2.5s.mp4,red,green,right,Countdown_2.5s.jpg,6,0,6,0,0,2,2,0,,,,,,,,,,,,620.3413522999999,621.2166981,0.8753458000001046,right,1,57,0.8538055999988501,,,,,,,,,,,,,,,Rachel,2023-07-20_15h51.34.302,Rewa's Exp,2023.1.2,59.9972521256645,
Countdown_1.5s.mp4,green,red,left,Countdown_1.5s.jpg,6,0,6,0,0,3,3,3,,,,,,,,,,,,625.1491835999996,626.0160951999997,0.866911600000094,left,1,58,0.8460609999992812,,,,,,,,,,,,,,,Rachel,2023-07-20_15h51.34.302,Rewa's Exp,2023.1.2,59.9972521256645,
Countdown_2s.mp4,green,red,left,Countdown_2s.jpg,6,0,6,0,0,4,4,5,,,,,,,,,,,,629.9072937999999,631.1661999999997,1.2589061999997284,left,1,59,1.2312939999992523,,,,,,,,,,,,,,,Rachel,2023-07-20_15h51.34.302,Rewa's Exp,2023.1.2,59.9972521256645,
Countdown_1.5s.mp4,red,green,right,Countdown_1.5s.jpg,6,0,6,0,0,5,5,2,,,,,,,,,,,,635.0624492999996,635.8493969000001,0.7869476000005307,right,1,60,0.7560853999993924,,,,,,,,,,,,,,,Rachel,2023-07-20_15h51.34.302,Rewa's Exp,2023.1.2,59.9972521256645,
Countdown_2s.mp4,red,green,right,Countdown_2s.jpg,6,0,6,0,,,,,0,0,0,1,,,,,,,,639.7755951999998,640.7500426999995,0.9744474999997692,,,58,,653.3444138000004,left,0,0.9465013999997609,,,,,,,,,,,Rachel,2023-07-20_15h51.34.302,Rewa's Exp,2023.1.2,59.9972521256645,
Countdown_2s.mp4,green,red,left,Countdown_2s.jpg,6,0,6,0,,,,,0,1,1,5,,,,,,,,644.6521328999997,645.4662644,0.8141315000002578,,,56,,658.2209173000001,right,0,0.7899793999986287,,,,,,,,,,,Rachel,2023-07-20_15h51.34.302,Rewa's Exp,2023.1.2,59.9972521256645,
Countdown_1.5s.mp4,red,green,right,Countdown_1.5s.jpg,6,0,6,0,,,,,0,2,2,2,,,,,,,,649.4345218999997,650.3328685999995,0.89834669999982,,,57,,663.0033486000002,right,1,0.8811446999998225,,,,,,,,,,,Rachel,2023-07-20_15h51.34.302,Rewa's Exp,2023.1.2,59.9972521256645,
Countdown_2.5s.mp4,red,green,right,Countdown_2.5s.jpg,6,0,6,0,,,,,0,3,3,0,,,,,,,,654.2368034000001,655.7162031999997,1.4793997999995554,,,58,,667.8056102999999,right,1,1.4462187999997695,,,,,,,,,,,Rachel,2023-07-20_15h51.34.302,Rewa's Exp,2023.1.2,59.9972521256645,
Countdown_2.5s.mp4,green,red,left,Countdown_2.5s.jpg,6,0,6,0,,,,,0,4,4,4,,,,,,,,659.6381960999997,660.7826679,1.1444718000002467,,,59,,673.2070118000001,left,1,1.1158596999994188,,,,,,,,,,,Rachel,2023-07-20_15h51.34.302,Rewa's Exp,2023.1.2,59.9972521256645,
Countdown_1.5s.mp4,green,red,left,Countdown_1.5s.jpg,6,0,6,0,,,,,0,5,5,3,,,,,,,,664.6749271999997,665.566229,0.8913018000002921,,,60,,678.2436980000002,left,1,0.8639094999989538,,,,,,,,,,,Rachel,2023-07-20_15h51.34.302,Rewa's Exp,2023.1.2,59.9972521256645,
Countdown_2s.mp4,red,green,right,Countdown_2s.jpg,6,0,6,0,,,,,,,,,0,0,0,1,,,,669.4803108999995,670.4662406999996,0.9859298000001218,,,61,,,,,,right,1,0.9537921999990431,,,,,,,,Rachel,2023-07-20_15h51.34.302,Rewa's Exp,2023.1.2,59.9972521256645,
Countdown_2.5s.mp4,green,red,left,Countdown_2.5s.jpg,6,0,6,0,,,,,,,,,0,1,1,4,,,,674.4052978999998,675.4493486000001,1.044050700000298,,,62,,,,,,left,1,1.012853999998697,,,,,,,,Rachel,2023-07-20_15h51.34.302,Rewa's Exp,2023.1.2,59.9972521256645,
Countdown_2s.mp4,green,red,left,Countdown_2s.jpg,6,0,6,0,,,,,,,,,0,2,2,5,,,,679.3647258000001,680.1495946999994,0.7848688999993101,,,60,,,,,,right,0,0.7668034999996962,,,,,,,,Rachel,2023-07-20_15h51.34.302,Rewa's Exp,2023.1.2,59.9972521256645,
Countdown_1.5s.mp4,red,green,right,Countdown_1.5s.jpg,6,0,6,0,,,,,,,,,0,3,3,2,,,,684.0247829999998,684.9830665,0.9582835000001069,,,61,,,,,,right,1,0.9300575999995999,,,,,,,,Rachel,2023-07-20_15h51.34.302,Rewa's Exp,2023.1.2,59.9972521256645,
Countdown_2.5s.mp4,red,green,right,Countdown_2.5s.jpg,6,0,6,0,,,,,,,,,0,4,4,0,,,,688.9091976,689.7003869,0.7911893000000418,,,62,,,,,,right,1,0.773148699999183,,,,,,,,Rachel,2023-07-20_15h51.34.302,Rewa's Exp,2023.1.2,59.9972521256645,
Countdown_1.5s.mp4,green,red,left,Countdown_1.5s.jpg,6,0,6,0,,,,,,,,,0,5,5,3,,,,693.6340498999998,694.2997495999998,0.6656997000000047,,,60,,,,,,right,0,0.6338158999997177,,,,,,,,Rachel,2023-07-20_15h51.34.302,Rewa's Exp,2023.1.2,59.9972521256645,
,,,,,6,0,6,0,,,,,,,,,,,,,,,,,,,,,,,,,,,,,,708.9959501000003,708.9959501000003,708.9959501000003,space,11.808322599998974,,,Rachel,2023-07-20_15h51.34.302,Rewa's Exp,2023.1.2,59.9972521256645,
Countdown_1.5s.mp4,red,green,right,Countdown_1.5s.jpg,7,0,7,0,0,0,0,2,,,,,,,,,,,,710.0477965999999,710.7495222999996,0.7017256999997699,right,1,61,0.6834523999996236,,,,,,,,,,,,,,,Rachel,2023-07-20_15h51.34.302,Rewa's Exp,2023.1.2,59.9972521256645,
Countdown_2.5s.mp4,green,red,left,Countdown_2.5s.jpg,7,0,7,0,0,1,1,4,,,,,,,,,,,,714.6472371,715.5329581999995,0.8857210999995004,left,1,62,0.8595571999994718,,,,,,,,,,,,,,,Rachel,2023-07-20_15h51.34.302,Rewa's Exp,2023.1.2,59.9972521256645,
Countdown_1.5s.mp4,green,red,left,Countdown_1.5s.jpg,7,0,7,0,0,2,2,3,,,,,,,,,,,,719.4449932999996,720.3172795999999,0.872286300000269,right,0,60,0.8466040999992401,,,,,,,,,,,,,,,Rachel,2023-07-20_15h51.34.302,Rewa's Exp,2023.1.2,59.9972521256645,
Countdown_2s.mp4,green,red,left,Countdown_2s.jpg,7,0,7,0,0,3,3,5,,,,,,,,,,,,724.2583420000001,725.1665446999996,0.9082026999994923,left,1,61,0.888612199999443,,,,,,,,,,,,,,,Rachel,2023-07-20_15h51.34.302,Rewa's Exp,2023.1.2,59.9972521256645,
Countdown_2s.mp4,red,green,right,Countdown_2s.jpg,7,0,7,0,0,4,4,1,,,,,,,,,,,,729.1073502999998,729.8664590999997,0.7591087999999218,right,1,62,0.7360154999987572,,,,,,,,,,,,,,,Rachel,2023-07-20_15h51.34.302,Rewa's Exp,2023.1.2,59.9972521256645,
Countdown_2.5s.mp4,red,green,right,Countdown_2.5s.jpg,7,0,7,0,0,5,5,0,,,,,,,,,,,,733.7894175000001,735.2161458999999,1.4267283999997744,right,1,63,1.406029499999022,,,,,,,,,,,,,,,Rachel,2023-07-20_15h51.34.302,Rewa's Exp,2023.1.2,59.9972521256645,
Countdown_2.5s.mp4,green,red,left,Countdown_2.5s.jpg,7,0,7,0,,,,,0,0,0,4,,,,,,,,739.1187690999996,740.2829325000002,1.1641634000006889,,,64,,752.6875257000002,left,1,1.14090749999923,,,,,,,,,,,Rachel,2023-07-20_15h51.34.302,Rewa's Exp,2023.1.2,59.9972521256645,
Countdown_1.5s.mp4,green,red,left,Countdown_1.5s.jpg,7,0,7,0,,,,,0,1,1,3,,,,,,,,744.1868362999994,745.2664226999996,1.079586400000153,,,65,,757.7556496000007,left,1,1.056029899999885,,,,,,,,,,,Rachel,2023-07-20_15h51.34.302,Rewa's Exp,2023.1.2,59.9972521256645,
Countdown_2s.mp4,red,green,right,Countdown_2s.jpg,7,0,7,0,,,,,0,2,2,1,,,,,,,,749.1946331999998,750.0832210999997,0.8885878999999477,,,66,,762.7634355999999,right,1,0.8717050999994171,,,,,,,,,,,Rachel,2023-07-20_15h51.34.302,Rewa's Exp,2023.1.2,59.9972521256645,
Countdown_2.5s.mp4,red,green,right,Countdown_2.5s.jpg,7,0,7,0,,,,,0,3,3,0,,,,,,,,753.9857458999995,755.1000435999995,1.1142976999999519,,,67,,767.5545731000002,right,1,1.0813192999985404,,,,,,,,,,,Rachel,2023-07-20_15h51.34.302,Rewa's Exp,2023.1.2,59.9972521256645,
Countdown_1.5s.mp4,red,green,right,Countdown_1.5s.jpg,7,0,7,0,,,,,0,4,4,2,,,,,,,,759.0682667000001,759.7664976999995,0.6982309999993959,,,68,,772.6369996000003,right,1,0.6714929999998276,,,,,,,,,,,Rachel,2023-07-20_15h51.34.302,Rewa's Exp,2023.1.2,59.9972521256645,
Countdown_2s.mp4,green,red,left,Countdown_2s.jpg,7,0,7,0,,,,,0,5,5,5,,,,,,,,763.6611753999996,764.5996831999992,0.9385077999995701,,,69,,777.2299167000001,left,1,0.9176511999994545,,,,,,,,,,,Rachel,2023-07-20_15h51.34.302,Rewa's Exp,2023.1.2,59.9972521256645,
Countdown_2.5s.mp4,green,red,left,Countdown_2.5s.jpg,7,0,7,0,,,,,,,,,0,0,0,4,,,,768.5216164000003,769.683014199999,1.1613977999986673,,,70,,,,,,left,1,1.1366128999998182,,,,,,,,Rachel,2023-07-20_15h51.34.302,Rewa's Exp,2023.1.2,59.9972521256645,
Countdown_2s.mp4,red,green,right,Countdown_2s.jpg,7,0,7,0,,,,,,,,,0,1,1,1,,,,773.5921969000001,774.2998911000004,0.7076942000003328,,,71,,,,,,right,1,0.6835343999991892,,,,,,,,Rachel,2023-07-20_15h51.34.302,Rewa's Exp,2023.1.2,59.9972521256645,
Countdown_1.5s.mp4,green,red,left,Countdown_1.5s.jpg,7,0,7,0,,,,,,,,,0,2,2,3,,,,778.2415864000004,778.9998117999994,0.7582253999989916,,,72,,,,,,left,1,0.7376660999998421,,,,,,,,Rachel,2023-07-20_15h51.34.302,Rewa's Exp,2023.1.2,59.9972521256645,
Countdown_2s.mp4,green,red,left,Countdown_2s.jpg,7,0,7,0,,,,,,,,,0,3,3,5,,,,782.9127269999999,783.9837768999996,1.0710498999997071,,,73,,,,,,left,1,1.051171400000385,,,,,,,,Rachel,2023-07-20_15h51.34.302,Rewa's Exp,2023.1.2,59.9972521256645,
Countdown_2.5s.mp4,red,green,right,Countdown_2.5s.jpg,7,0,7,0,,,,,,,,,0,4,4,0,,,,787.9049425000003,789.0329570999993,1.1280145999990054,,,71,,,,,,left,0,1.0980478000001312,,,,,,,,Rachel,2023-07-20_15h51.34.302,Rewa's Exp,2023.1.2,59.9972521256645,
Countdown_1.5s.mp4,red,green,right,Countdown_1.5s.jpg,7,0,7,0,,,,,,,,,0,5,5,2,,,,792.9803851000006,793.7169951000005,0.7366099999999278,,,69,,,,,,left,0,0.7191874000000098,,,,,,,,Rachel,2023-07-20_15h51.34.302,Rewa's Exp,2023.1.2,59.9972521256645,
,,,,,7,0,7,0,,,,,,,,,,,,,,,,,,,,,,,,,,,,,,808.4127303000005,808.4127303000005,808.4127303000005,space,17.40770859999975,,,Rachel,2023-07-20_15h51.34.302,Rewa's Exp,2023.1.2,59.9972521256645,
Countdown_2.5s.mp4,green,red,left,Countdown_2.5s.jpg,8,0,8,0,0,0,0,4,,,,,,,,,,,,815.0668997999992,815.9673622,0.9004624000008334,left,1,70,0.8723571999980777,,,,,,,,,,,,,,,Rachel,2023-07-20_15h51.34.302,Rewa's Exp,2023.1.2,59.9972521256645,
Countdown_1.5s.mp4,red,green,right,Countdown_1.5s.jpg,8,0,8,0,0,1,1,2,,,,,,,,,,,,819.9003153000003,820.7165094000002,0.8161940999998478,left,0,68,0.7991925999995146,,,,,,,,,,,,,,,Rachel,2023-07-20_15h51.34.302,Rewa's Exp,2023.1.2,59.9972521256645,
Countdown_2s.mp4,red,green,right,Countdown_2s.jpg,8,0,8,0,0,2,2,1,,,,,,,,,,,,824.6158879999994,825.7332987,1.1174107000006188,right,1,69,1.0907090999990032,,,,,,,,,,,,,,,Rachel,2023-07-20_15h51.34.302,Rewa's Exp,2023.1.2,59.9972521256645,
Countdown_2s.mp4,green,red,left,Countdown_2s.jpg,8,0,8,0,0,3,3,5,,,,,,,,,,,,829.6485805999991,830.4833033000004,0.8347227000012936,left,1,70,0.8020868999992672,,,,,,,,,,,,,,,Rachel,2023-07-20_15h51.34.302,Rewa's Exp,2023.1.2,59.9972521256645,
Countdown_1.5s.mp4,green,red,left,Countdown_1.5s.jpg,8,0,8,0,0,4,4,3,,,,,,,,,,,,834.4451173999996,835.4000759,0.9549585000004299,left,1,71,0.9338778999990609,,,,,,,,,,,,,,,Rachel,2023-07-20_15h51.34.302,Rewa's Exp,2023.1.2,59.9972521256645,
Countdown_2.5s.mp4,red,green,right,Countdown_2.5s.jpg,8,0,8,0,0,5,5,0,,,,,,,,,,,,839.3748929999992,840.4332052999989,1.0583122999996704,right,1,72,1.036664399998699,,,,,,,,,,,,,,,Rachel,2023-07-20_15h51.34.302,Rewa's Exp,2023.1.2,59.9972521256645,
Countdown_2s.mp4,red,green,right,Countdown_2s.jpg,8,0,8,0,,,,,0,0,0,1,,,,,,,,844.3366450000003,845.2999252,0.9632801999996445,,,70,,857.9054271000005,left,0,0.9388878999980079,,,,,,,,,,,Rachel,2023-07-20_15h51.34.302,Rewa's Exp,2023.1.2,59.9972521256645,
Countdown_2.5s.mp4,red,green,right,Countdown_2.5s.jpg,8,0,8,0,,,,,0,1,1,0,,,,,,,,849.2089308000004,850.0665725999997,0.8576417999993282,,,71,,862.7777201000008,right,1,0.8342714999998861,,,,,,,,,,,Rachel,2023-07-20_15h51.34.302,Rewa's Exp,2023.1.2,59.9972521256645,
Countdown_2.5s.mp4,green,red,left,Countdown_2.5s.jpg,8,0,8,0,,,,,0,2,2,4,,,,,,,,853.963166999999,855.083286099999,1.1201191000000108,,,72,,867.531942900001,left,1,1.0880447999988974,,,,,,,,,,,Rachel,2023-07-20_15h51.34.302,Rewa's Exp,2023.1.2,59.9972521256645,
Countdown_1.5s.mp4,green,red,left,Countdown_1.5s.jpg,8,0,8,0,,,,,0,3,3,3,,,,,,,,859.0114127000006,859.8666347999997,0.8552220999990823,,,70,,872.5795464000003,right,0,0.8324310999996669,,,,,,,,,,,Rachel,2023-07-20_15h51.34.302,Rewa's Exp,2023.1.2,59.9972521256645,
Countdown_1.5s.mp4,red,green,right,Countdown_1.5s.jpg,8,0,8,0,,,,,0,4,4,2,,,,,,,,863.8044290000007,864.849979399999,1.0455503999983193,,,71,,877.3732409000004,right,1,1.014055699999517,,,,,,,,,,,Rachel,2023-07-20_15h51.34.302,Rewa's Exp,2023.1.2,59.9972521256645,
Countdown_2s.mp4,green,red,left,Countdown_2s.jpg,8,0,8,0,,,,,0,5,5,5,,,,,,,,868.7670790999991,869.9832068999995,1.2161278000003222,,,69,,882.3359084000003,right,0,1.1955312999998569,,,,,,,,,,,Rachel,2023-07-20_15h51.34.302,Rewa's Exp,2023.1.2,59.9972521256645,
Countdown_1.5s.mp4,green,red,left,Countdown_1.5s.jpg,8,0,8,0,,,,,,,,,0,0,0,3,,,,873.8725963999996,874.5665163000003,0.6939199000007648,,,70,,,,,,left,1,0.6744877999990422,,,,,,,,Rachel,2023-07-20_15h51.34.302,Rewa's Exp,2023.1.2,59.9972521256645,
Countdown_2s.mp4,red,green,right,Countdown_2s.jpg,8,0,8,0,,,,,,,,,0,1,1,1,,,,878.4936007999995,879.3672135999996,0.8736128000000463,,,68,,,,,,left,0,0.8446809999986726,,,,,,,,Rachel,2023-07-20_15h51.34.302,Rewa's Exp,2023.1.2,59.9972521256645,
Countdown_2.5s.mp4,green,red,left,Countdown_2.5s.jpg,8,0,8,0,,,,,,,,,0,2,2,4,,,,883.3266386000005,884.4499645000005,1.1233259000000544,,,69,,,,,,left,1,1.1002656999989995,,,,,,,,Rachel,2023-07-20_15h51.34.302,Rewa's Exp,2023.1.2,59.9972521256645,
Countdown_2.5s.mp4,red,green,right,Countdown_2.5s.jpg,8,0,8,0,,,,,,,,,0,3,3,0,,,,888.3758011,889.567081799999,1.1912806999989698,,,67,,,,,,left,0,1.1634899000000587,,,,,,,,Rachel,2023-07-20_15h51.34.302,Rewa's Exp,2023.1.2,59.9972521256645,
Countdown_2s.mp4,green,red,left,Countdown_2s.jpg,8,0,8,0,,,,,,,,,0,4,4,5,,,,893.4938986999996,894.8333255999996,1.339426900000035,,,65,,,,,,right,0,1.3171889999994164,,,,,,,,Rachel,2023-07-20_15h51.34.302,Rewa's Exp,2023.1.2,59.9972521256645,
Countdown_1.5s.mp4,red,green,right,Countdown_1.5s.jpg,8,0,8,0,,,,,,,,,0,5,5,2,,,,898.7275385999992,899.4333768000006,0.7058382000013808,,,66,,,,,,right,1,0.6841759999988426,,,,,,,,Rachel,2023-07-20_15h51.34.302,Rewa's Exp,2023.1.2,59.9972521256645,
,,,,,8,0,8,0,,,,,,,,,,,,,,,,,,,,,,,,,,,,,,914.1130413999999,914.1130413999999,914.1130413999999,space,1.9473755999988498,,,Rachel,2023-07-20_15h51.34.302,Rewa's Exp,2023.1.2,59.9972521256645,
Countdown_2.5s.mp4,green,red,left,Countdown_2.5s.jpg,9,0,9,0,0,0,0,4,,,,,,,,,,,,905.2966817000006,906.3332445000005,1.036562799999956,left,1,67,1.0102064000002429,,,,,,,,,,,,,,,Rachel,2023-07-20_15h51.34.302,Rewa's Exp,2023.1.2,59.9972521256645,
Countdown_2s.mp4,green,red,left,Countdown_2s.jpg,9,0,9,0,0,1,1,5,,,,,,,,,,,,910.3020858999998,911.4332473000004,1.1311614000005648,left,1,68,1.1008079999992333,,,,,,,,,,,,,,,Rachel,2023-07-20_15h51.34.302,Rewa's Exp,2023.1.2,59.9972521256645,
Countdown_1.5s.mp4,red,green,right,Countdown_1.5s.jpg,9,0,9,0,0,2,2,2,,,,,,,,,,,,915.3964635999992,916.3999238000006,1.0034602000014274,right,1,69,0.9754892999990261,,,,,,,,,,,,,,,Rachel,2023-07-20_15h51.34.302,Rewa's Exp,2023.1.2,59.9972521256645,
Countdown_2s.mp4,red,green,right,Countdown_2s.jpg,9,0,9,0,0,3,3,1,,,,,,,,,,,,920.3104971000002,921.4913468999994,1.1808497999991232,right,1,70,1.0919958999984374,,,,,,,,,,,,,,,Rachel,2023-07-20_15h51.34.302,Rewa's Exp,2023.1.2,59.9972521256645,
Countdown_1.5s.mp4,green,red,left,Countdown_1.5s.jpg,9,0,9,0,0,4,4,3,,,,,,,,,,,,925.4273987999995,926.1334918999992,0.7060930999996344,left,1,71,0.6888405999998213,,,,,,,,,,,,,,,Rachel,2023-07-20_15h51.34.302,Rewa's Exp,2023.1.2,59.9972521256645,
Countdown_2.5s.mp4,red,green,right,Countdown_2.5s.jpg,9,0,9,0,0,5,5,0,,,,,,,,,,,,930.0240746999998,931.100071599999,1.0759968999991543,right,1,72,1.0516710999982024,,,,,,,,,,,,,,,Rachel,2023-07-20_15h51.34.302,Rewa's Exp,2023.1.2,59.9972521256645,
Countdown_2s.mp4,green,red,left,Countdown_2s.jpg,9,0,9,0,,,,,0,0,0,5,,,,,,,,935.0692200999993,936.3007561999993,1.2315361000000848,,,73,,948.6380312000001,left,1,1.2060848999990412,,,,,,,,,,,Rachel,2023-07-20_15h51.34.302,Rewa's Exp,2023.1.2,59.9972521256645,
Countdown_2s.mp4,red,green,right,Countdown_2s.jpg,9,0,9,0,,,,,0,1,1,1,,,,,,,,940.2228067000005,941.3665563999994,1.143749699998807,,,74,,953.7916186000002,right,1,1.1245579999995243,,,,,,,,,,,Rachel,2023-07-20_15h51.34.302,Rewa's Exp,2023.1.2,59.9972521256645,
Countdown_1.5s.mp4,red,green,right,Countdown_1.5s.jpg,9,0,9,0,,,,,0,2,2,2,,,,,,,,945.2614898000002,946.1669054000004,0.9054156000001967,,,72,,958.8302053000007,left,0,0.8771031999986008,,,,,,,,,,,Rachel,2023-07-20_15h51.34.302,Rewa's Exp,2023.1.2,59.9972521256645,
Countdown_2.5s.mp4,green,red,left,Countdown_2.5s.jpg,9,0,9,0,,,,,0,3,3,4,,,,,,,,950.1002713000007,951.2168006999991,1.1165293999983987,,,73,,963.6690716000012,left,1,1.0867242000003898,,,,,,,,,,,Rachel,2023-07-20_15h51.34.302,Rewa's Exp,2023.1.2,59.9972521256645,
Countdown_2.5s.mp4,red,green,right,Countdown_2.5s.jpg,9,0,9,0,,,,,0,4,4,0,,,,,,,,955.1913276999994,956.0834910999993,0.8921633999998448,,,74,,968.7596561000009,right,1,0.8692487999996956,,,,,,,,,,,Rachel,2023-07-20_15h51.34.302,Rewa's Exp,2023.1.2,59.9972521256645,
Countdown_1.5s.mp4,green,red,left,Countdown_1.5s.jpg,9,0,9,0,,,,,0,5,5,3,,,,,,,,959.9987257000003,961.0168351999992,1.0181094999989,,,72,,973.5675284000008,right,0,0.9962795999999798,,,,,,,,,,,Rachel,2023-07-20_15h51.34.302,Rewa's Exp,2023.1.2,59.9972521256645,
Countdown_2.5s.mp4,red,green,right,Countdown_2.5s.jpg,9,0,9,0,,,,,,,,,0,0,0,0,,,,964.9254050999998,966.4003562999997,1.4749511999998504,,,70,,,,,,left,0,1.4536068999987037,,,,,,,,Rachel,2023-07-20_15h51.34.302,Rewa's Exp,2023.1.2,59.9972521256645,
Countdown_2s.mp4,green,red,left,Countdown_2s.jpg,9,0,9,0,,,,,,,,,0,1,1,5,,,,970.3653103999995,971.5666981999993,1.201387799999793,,,71,,,,,,left,1,1.1747018999994907,,,,,,,,Rachel,2023-07-20_15h51.34.302,Rewa's Exp,2023.1.2,59.9972521256645,
Countdown_1.5s.mp4,red,green,right,Countdown_1.5s.jpg,9,0,9,0,,,,,,,,,0,2,2,2,,,,975.4884143999998,976.4669684999999,0.9785541000001103,,,72,,,,,,right,1,0.9557785999986663,,,,,,,,Rachel,2023-07-20_15h51.34.302,Rewa's Exp,2023.1.2,59.9972521256645,
Countdown_2s.mp4,red,green,right,Countdown_2s.jpg,9,0,9,0,,,,,,,,,0,3,3,1,,,,980.3637788000005,981.2169335999997,0.8531547999991744,,,70,,,,,,left,0,0.8233564999991358,,,,,,,,Rachel,2023-07-20_15h51.34.302,Rewa's Exp,2023.1.2,59.9972521256645,
Countdown_2.5s.mp4,green,red,left,Countdown_2.5s.jpg,9,0,9,0,,,,,,,,,0,4,4,4,,,,985.1730949999992,986.2840535000005,1.1109585000012885,,,71,,,,,,left,1,1.0783965999999054,,,,,,,,Rachel,2023-07-20_15h51.34.302,Rewa's Exp,2023.1.2,59.9972521256645,
Countdown_1.5s.mp4,green,red,left,Countdown_1.5s.jpg,9,0,9,0,,,,,,,,,0,5,5,3,,,,990.2101181999997,991.1669769999999,0.956858800000191,,,72,,,,,,left,1,0.9370441999999457,,,,,,,,Rachel,2023-07-20_15h51.34.302,Rewa's Exp,2023.1.2,59.9972521256645,
,,,,,9,0,9,0,,,,,,,,,,,,,,,,,,,,,,,,,,,,,,1005.8798876000001,1005.8798876000001,1005.8798876000001,space,2.051787999998851,,,Rachel,2023-07-20_15h51.34.302,Rewa's Exp,2023.1.2,59.9972521256645,
Countdown_1.5s.mp4,red,green,right,Countdown_1.5s.jpg,10,0,10,0,0,0,0,2,,,,,,,,,,,,997.2018808000003,998.2834030000004,1.0815222000001086,right,1,73,1.0578389999991487,,,,,,,,,,,,,,,Rachel,2023-07-20_15h51.34.302,Rewa's Exp,2023.1.2,59.9972521256645,
Countdown_2s.mp4,red,green,right,Countdown_2s.jpg,10,0,10,0,0,1,1,1,,,,,,,,,,,,1002.1937444000005,1003.1501510999997,0.9564066999992065,right,1,74,0.9374322000003303,,,,,,,,,,,,,,,Rachel,2023-07-20_15h51.34.302,Rewa's Exp,2023.1.2,59.9972521256645,
Countdown_2.5s.mp4,green,red,left,Countdown_2.5s.jpg,10,0,10,0,0,2,2,4,,,,,,,,,,,,1007.073534099999,1008.1167216000003,1.0431875000012951,left,1,75,1.0186582000005728,,,,,,,,,,,,,,,Rachel,2023-07-20_15h51.34.302,Rewa's Exp,2023.1.2,59.9972521256645,
Countdown_2.5s.mp4,red,green,right,Countdown_2.5s.jpg,10,0,10,0,0,3,3,0,,,,,,,,,,,,1012.0316716999996,1013.0170814999992,0.9854097999996156,right,1,76,0.9552686999995785,,,,,,,,,,,,,,,Rachel,2023-07-20_15h51.34.302,Rewa's Exp,2023.1.2,59.9972521256645,
Countdown_2s.mp4,green,red,left,Countdown_2s.jpg,10,0,10,0,0,4,4,5,,,,,,,,,,,,1016.9383900000003,1018.0835405000007,1.1451505000004545,left,1,77,1.1209867999987182,,,,,,,,,,,,,,,Rachel,2023-07-20_15h51.34.302,Rewa's Exp,2023.1.2,59.9972521256645,
Countdown_1.5s.mp4,green,red,left,Countdown_1.5s.jpg,10,0,10,0,0,5,5,3,,,,,,,,,,,,1022.0187359000001,1023.1502971,1.131561199999851,left,1,78,1.1134249999977328,,,,,,,,,,,,,,,Rachel,2023-07-20_15h51.34.302,Rewa's Exp,2023.1.2,59.9972521256645,
Countdown_1.5s.mp4,green,red,left,Countdown_1.5s.jpg,10,0,10,0,,,,,0,0,0,3,,,,,,,,1027.0802063,1028.0342109999992,0.9540046999991318,,,79,,1040.6490352,left,1,0.9306990000004589,,,,,,,,,,,Rachel,2023-07-20_15h51.34.302,Rewa's Exp,2023.1.2,59.9972521256645,
Countdown_2.5s.mp4,red,green,right,Countdown_2.5s.jpg,10,0,10,0,,,,,0,1,1,0,,,,,,,,1031.9654593000005,1033.3502295999997,1.384770299999218,,,80,,1045.5342980999994,right,1,1.3579628999996203,,,,,,,,,,,Rachel,2023-07-20_15h51.34.302,Rewa's Exp,2023.1.2,59.9972521256645,
Countdown_2.5s.mp4,green,red,left,Countdown_2.5s.jpg,10,0,10,0,,,,,0,2,2,4,,,,,,,,1037.2531874000006,1038.2002621000001,0.9470746999995754,,,81,,1050.821307100001,left,1,0.9265436999994563,,,,,,,,,,,Rachel,2023-07-20_15h51.34.302,Rewa's Exp,2023.1.2,59.9972521256645,
Countdown_1.5s.mp4,red,green,right,Countdown_1.5s.jpg,10,0,10,0,,,,,0,3,3,2,,,,,,,,1042.1128691999993,1043.1336223999997,1.0207532000003994,,,82,,1055.681680900001,right,1,0.9935819000002084,,,,,,,,,,,Rachel,2023-07-20_15h51.34.302,Rewa's Exp,2023.1.2,59.9972521256645,
Countdown_2s.mp4,green,red,left,Countdown_2s.jpg,10,0,10,0,,,,,0,4,4,5,,,,,,,,1047.0153115999992,1047.9004314000003,0.8851198000011209,,,83,,1060.5841299000003,left,1,0.86058310000044,,,,,,,,,,,Rachel,2023-07-20_15h51.34.302,Rewa's Exp,2023.1.2,59.9972521256645,
Countdown_2s.mp4,red,green,right,Countdown_2s.jpg,10,0,10,0,,,,,0,5,5,1,,,,,,,,1051.8133081999995,1052.7339165000003,0.920608300000822,,,84,,1065.3821085,right,1,0.8940203999991354,,,,,,,,,,,Rachel,2023-07-20_15h51.34.302,Rewa's Exp,2023.1.2,59.9972521256645,
Countdown_1.5s.mp4,red,green,right,Countdown_1.5s.jpg,10,0,10,0,,,,,,,,,0,0,0,2,,,,1056.6489613000003,1057.4673813,0.8184199999996054,,,85,,,,,,right,1,0.7857877999995253,,,,,,,,Rachel,2023-07-20_15h51.34.302,Rewa's Exp,2023.1.2,59.9972521256645,
Countdown_2s.mp4,red,green,right,Countdown_2s.jpg,10,0,10,0,,,,,,,,,0,1,1,1,,,,1061.3675348999996,1062.3173469999992,0.94981209999969,,,83,,,,,,left,0,0.9318952999983594,,,,,,,,Rachel,2023-07-20_15h51.34.302,Rewa's Exp,2023.1.2,59.9972521256645,
Countdown_2.5s.mp4,green,red,left,Countdown_2.5s.jpg,10,0,10,0,,,,,,,,,0,2,2,4,,,,1066.2442180999997,1067.4836600999997,1.2394420000000537,,,84,,,,,,left,1,1.222497700000531,,,,,,,,Rachel,2023-07-20_15h51.34.302,Rewa's Exp,2023.1.2,59.9972521256645,
Countdown_2s.mp4,green,red,left,Countdown_2s.jpg,10,0,10,0,,,,,,,,,0,3,3,5,,,,1071.3990268999996,1072.5837213999994,1.1846944999997504,,,85,,,,,,left,1,1.1647930999988603,,,,,,,,Rachel,2023-07-20_15h51.34.302,Rewa's Exp,2023.1.2,59.9972521256645,
Countdown_1.5s.mp4,green,red,left,Countdown_1.5s.jpg,10,0,10,0,,,,,,,,,0,4,4,3,,,,1076.473180599999,1077.7670116,1.2938310000008642,,,83,,,,,,right,0,1.2660756999994192,,,,,,,,Rachel,2023-07-20_15h51.34.302,Rewa's Exp,2023.1.2,59.9972521256645,
Countdown_2.5s.mp4,red,green,right,Countdown_2.5s.jpg,10,0,10,0,,,,,,,,,0,5,5,0,,,,1081.6800458999996,1083.1003955999995,1.4203496999998606,,,84,,,,,,right,1,1.395499899999777,,,,,,,,Rachel,2023-07-20_15h51.34.302,Rewa's Exp,2023.1.2,59.9972521256645,
,,,,,10,0,10,0,,,,,,,,,,,,,,,,,,,,,,,,,,,,,,1097.7968769,1097.7968769,1097.7968769,space,27.52839849999873,,,Rachel,2023-07-20_15h51.34.302,Rewa's Exp,2023.1.2,59.9972521256645,
Countdown_2s.mp4,green,red,left,Countdown_2s.jpg,11,0,11,0,0,0,0,5,,,,,,,,,,,,1114.5465799000003,1115.4675680999999,0.920988199999556,left,1,85,0.8973221999985981,,,,,,,,,,,,,,,Rachel,2023-07-20_15h51.34.302,Rewa's Exp,2023.1.2,59.9972521256645,
Countdown_2.5s.mp4,green,red,left,Countdown_2.5s.jpg,11,0,11,0,0,1,1,4,,,,,,,,,,,,1119.3676311999998,1120.2171515,0.849520300000222,left,1,86,0.8287815999992745,,,,,,,,,,,,,,,Rachel,2023-07-20_15h51.34.302,Rewa's Exp,2023.1.2,59.9972521256645,
Countdown_2s.mp4,red,green,right,Countdown_2s.jpg,11,0,11,0,0,2,2,1,,,,,,,,,,,,1124.1588586000007,1124.8673069999995,0.7084483999988151,right,1,87,0.6850093999983073,,,,,,,,,,,,,,,Rachel,2023-07-20_15h51.34.302,Rewa's Exp,2023.1.2,59.9972521256645,
Countdown_1.5s.mp4,red,green,right,Countdown_1.5s.jpg,11,0,11,0,0,3,3,2,,,,,,,,,,,,1128.7844847000006,1129.6339643000001,0.8494795999995404,right,1,88,0.8183555999985401,,,,,,,,,,,,,,,Rachel,2023-07-20_15h51.34.302,Rewa's Exp,2023.1.2,59.9972521256645,
Countdown_1.5s.mp4,green,red,left,Countdown_1.5s.jpg,11,0,11,0,0,4,4,3,,,,,,,,,,,,1133.5556236999992,1134.4839478999993,0.9283242000001337,left,1,89,0.9042043999997986,,,,,,,,,,,,,,,Rachel,2023-07-20_15h51.34.302,Rewa's Exp,2023.1.2,59.9972521256645,
Countdown_2.5s.mp4,red,green,right,Countdown_2.5s.jpg,11,0,11,0,0,5,5,0,,,,,,,,,,,,1138.4260851999998,1139.8178037999996,1.3917185999998765,left,0,87,1.3691500999993877,,,,,,,,,,,,,,,Rachel,2023-07-20_15h51.34.302,Rewa's Exp,2023.1.2,59.9972521256645,
Countdown_2.5s.mp4,green,red,left,Countdown_2.5s.jpg,11,0,11,0,,,,,0,0,0,4,,,,,,,,1143.761120799999,1144.7671051999996,1.0059844000006706,,,88,,1157.3299274,left,1,0.9862963999985368,,,,,,,,,,,Rachel,2023-07-20_15h51.34.302,Rewa's Exp,2023.1.2,59.9972521256645,
Countdown_1.5s.mp4,red,green,right,Countdown_1.5s.jpg,11,0,11,0,,,,,0,1,1,2,,,,,,,,1148.6838560000006,1149.3840766999992,0.7002206999986811,,,89,,1162.2526820000003,right,1,0.6800288999984332,,,,,,,,,,,Rachel,2023-07-20_15h51.34.302,Rewa's Exp,2023.1.2,59.9972521256645,
Countdown_2s.mp4,green,red,left,Countdown_2s.jpg,11,0,11,0,,,,,0,2,2,5,,,,,,,,1153.2794655999996,1154.1170831999998,0.8376176000001578,,,90,,1166.8482604,left,1,0.8117897999982233,,,,,,,,,,,Rachel,2023-07-20_15h51.34.302,Rewa's Exp,2023.1.2,59.9972521256645,
Countdown_2.5s.mp4,red,green,right,Countdown_2.5s.jpg,11,0,11,0,,,,,0,3,3,0,,,,,,,,1158.0763094999993,1158.9509654000003,0.8746559000010166,,,88,,1171.6450862000002,left,0,0.846754799998962,,,,,,,,,,,Rachel,2023-07-20_15h51.34.302,Rewa's Exp,2023.1.2,59.9972521256645,
Countdown_1.5s.mp4,green,red,left,Countdown_1.5s.jpg,11,0,11,0,,,,,0,4,4,3,,,,,,,,1162.9178134999993,1163.9509509999998,1.033137500000521,,,89,,1176.4866383999997,left,1,1.0053644999989046,,,,,,,,,,,Rachel,2023-07-20_15h51.34.302,Rewa's Exp,2023.1.2,59.9972521256645,
Countdown_2s.mp4,red,green,right,Countdown_2s.jpg,11,0,11,0,,,,,0,5,5,1,,,,,,,,1167.869177399999,1168.9337083,1.0645309000010457,,,90,,1181.4379847,right,1,1.0378362999981618,,,,,,,,,,,Rachel,2023-07-20_15h51.34.302,Rewa's Exp,2023.1.2,59.9972521256645,
Countdown_2s.mp4,green,red,left,Countdown_2s.jpg,11,0,11,0,,,,,,,,,0,0,0,5,,,,1172.8522542,1173.6848710999993,0.832616899999266,,,91,,,,,,left,1,0.8068337000004249,,,,,,,,Rachel,2023-07-20_15h51.34.302,Rewa's Exp,2023.1.2,59.9972521256645,
Countdown_2.5s.mp4,green,red,left,Countdown_2.5s.jpg,11,0,11,0,,,,,,,,,0,1,1,4,,,,1177.6677917999996,1179.1670781000003,1.4992863000006764,,,89,,,,,,right,0,1.4707060999990063,,,,,,,,Rachel,2023-07-20_15h51.34.302,Rewa's Exp,2023.1.2,59.9972521256645,
Countdown_1.5s.mp4,green,red,left,Countdown_1.5s.jpg,11,0,11,0,,,,,,,,,0,2,2,3,,,,1183.0596515999996,1184.267244399999,1.2075927999994747,,,90,,,,,,left,1,1.1844278999978997,,,,,,,,Rachel,2023-07-20_15h51.34.302,Rewa's Exp,2023.1.2,59.9972521256645,
Countdown_1.5s.mp4,red,green,right,Countdown_1.5s.jpg,11,0,11,0,,,,,,,,,0,3,3,2,,,,1188.1754226999992,1188.9839870999995,0.8085644000002503,,,91,,,,,,right,1,0.7799554999983229,,,,,,,,Rachel,2023-07-20_15h51.34.302,Rewa's Exp,2023.1.2,59.9972521256645,
Countdown_2s.mp4,red,green,right,Countdown_2s.jpg,11,0,11,0,,,,,,,,,0,4,4,1,,,,1192.9095886000005,1193.8840341999994,0.9744455999989441,,,89,,,,,,left,0,0.9411842999998044,,,,,,,,Rachel,2023-07-20_15h51.34.302,Rewa's Exp,2023.1.2,59.9972521256645,
Countdown_2.5s.mp4,red,green,right,Countdown_2.5s.jpg,11,0,11,0,,,,,,,,,0,5,5,0,,,,1197.7812380000005,1198.8005700999993,1.0193320999987918,,,90,,,,,,right,1,0.9985395999992761,,,,,,,,Rachel,2023-07-20_15h51.34.302,Rewa's Exp,2023.1.2,59.9972521256645,
,,,,,11,0,11,0,,,,,,,,,,,,,,,,,,,,,,,,,,,,,,1213.4970903000012,1213.4970903000012,1213.4970903000012,space,26.978962299997875,,,Rachel,2023-07-20_15h51.34.302,Rewa's Exp,2023.1.2,59.9972521256645,
Countdown_2s.mp4,red,green,right,Countdown_2s.jpg,12,0,12,0,0,0,0,1,,,,,,,,,,,,1229.7322601999995,1231.351063699999,1.618803499999558,left,0,88,1.5917541999988316,,,,,,,,,,,,,,,Rachel,2023-07-20_15h51.34.302,Rewa's Exp,2023.1.2,59.9972521256645,
Countdown_1.5s.mp4,red,green,right,Countdown_1.5s.jpg,12,0,12,0,0,1,1,2,,,,,,,,,,,,1235.274853599999,1236.283803899999,1.008950299999924,left,0,86,0.9926809999979014,,,,,,,,,,,,,,,Rachel,2023-07-20_15h51.34.302,Rewa's Exp,2023.1.2,59.9972521256645,
Countdown_2s.mp4,green,red,left,Countdown_2s.jpg,12,0,12,0,0,2,2,5,,,,,,,,,,,,1240.1949701999993,1241.3174129999998,1.1224428000004991,left,1,87,1.1045364999990852,,,,,,,,,,,,,,,Rachel,2023-07-20_15h51.34.302,Rewa's Exp,2023.1.2,59.9972521256645,
Countdown_2.5s.mp4,green,red,left,Countdown_2.5s.jpg,12,0,12,0,0,3,3,4,,,,,,,,,,,,1245.2263642999997,1246.1173167000006,0.8909524000009696,left,1,88,0.8645113999991736,,,,,,,,,,,,,,,Rachel,2023-07-20_15h51.34.302,Rewa's Exp,2023.1.2,59.9972521256645,
Countdown_2.5s.mp4,red,green,right,Countdown_2.5s.jpg,12,0,12,0,0,4,4,0,,,,,,,,,,,,1250.022660399999,1251.3006861999993,1.2780258000002505,left,0,86,1.253462099997705,,,,,,,,,,,,,,,Rachel,2023-07-20_15h51.34.302,Rewa's Exp,2023.1.2,59.9972521256645,
Countdown_1.5s.mp4,green,red,left,Countdown_1.5s.jpg,12,0,12,0,0,5,5,3,,,,,,,,,,,,1255.269044399999,1256.3673699,1.0983255000010104,right,0,84,1.0702091999992263,,,,,,,,,,,,,,,Rachel,2023-07-20_15h51.34.302,Rewa's Exp,2023.1.2,59.9972521256645,
Countdown_2.5s.mp4,red,green,right,Countdown_2.5s.jpg,12,0,12,0,,,,,0,0,0,0,,,,,,,,1260.2696071,1261.6674245000004,1.3978174000003492,,,85,,1273.8383966000001,right,1,1.3744165999996767,,,,,,,,,,,Rachel,2023-07-20_15h51.34.302,Rewa's Exp,2023.1.2,59.9972521256645,
Countdown_2.5s.mp4,green,red,left,Countdown_2.5s.jpg,12,0,12,0,,,,,0,1,1,4,,,,,,,,1265.5862007999995,1266.750692999999,1.1644921999995859,,,86,,1279.1550031000006,left,1,1.1464543999991292,,,,,,,,,,,Rachel,2023-07-20_15h51.34.302,Rewa's Exp,2023.1.2,59.9972521256645,
Countdown_2s.mp4,green,red,left,Countdown_2s.jpg,12,0,12,0,,,,,0,2,2,5,,,,,,,,1270.6447591000006,1271.7337550000002,1.0889958999996452,,,87,,1284.2135630000012,left,1,1.0709862999992765,,,,,,,,,,,Rachel,2023-07-20_15h51.34.302,Rewa's Exp,2023.1.2,59.9972521256645,
Countdown_2s.mp4,red,green,right,Countdown_2s.jpg,12,0,12,0,,,,,0,3,3,1,,,,,,,,1275.6767757000007,1277.0339635999999,1.3571878999991895,,,88,,1289.245579800001,right,1,1.3261375999991287,,,,,,,,,,,Rachel,2023-07-20_15h51.34.302,Rewa's Exp,2023.1.2,59.9972521256645,
Countdown_1.5s.mp4,red,green,right,Countdown_1.5s.jpg,12,0,12,0,,,,,0,4,4,2,,,,,,,,1280.9598727000002,1281.867479399999,0.9076066999987233,,,89,,1294.5286467000005,right,1,0.875946499998463,,,,,,,,,,,Rachel,2023-07-20_15h51.34.302,Rewa's Exp,2023.1.2,59.9972521256645,
Countdown_1.5s.mp4,green,red,left,Countdown_1.5s.jpg,12,0,12,0,,,,,0,5,5,3,,,,,,,,1285.7547781000003,1286.5341689000006,0.7793908000003285,,,90,,1299.3235605999998,left,1,0.7613872999991145,,,,,,,,,,,Rachel,2023-07-20_15h51.34.302,Rewa's Exp,2023.1.2,59.9972521256645,
Countdown_2s.mp4,red,green,right,Countdown_2s.jpg,12,0,12,0,,,,,,,,,0,0,0,1,,,,1290.4693120999991,1291.8172943,1.3479822000008426,,,91,,,,,,right,1,1.3267335000000458,,,,,,,,Rachel,2023-07-20_15h51.34.302,Rewa's Exp,2023.1.2,59.9972521256645,
Countdown_2.5s.mp4,red,green,right,Countdown_2.5s.jpg,12,0,12,0,,,,,,,,,0,1,1,0,,,,1295.7091883999992,1296.767442199999,1.058253799999875,,,92,,,,,,right,1,1.0387288999991142,,,,,,,,Rachel,2023-07-20_15h51.34.302,Rewa's Exp,2023.1.2,59.9972521256645,
Countdown_2.5s.mp4,green,red,left,Countdown_2.5s.jpg,12,0,12,0,,,,,,,,,0,2,2,4,,,,1300.6735108000003,1302.3370017000007,1.6634909000003972,,,93,,,,,,left,1,1.6434797999991133,,,,,,,,Rachel,2023-07-20_15h51.34.302,Rewa's Exp,2023.1.2,59.9972521256645,
Countdown_1.5s.mp4,red,green,right,Countdown_1.5s.jpg,12,0,12,0,,,,,,,,,0,3,3,2,,,,1306.216804999999,1307.4341197999993,1.2173148000001675,,,91,,,,,,left,0,1.1858924999978626,,,,,,,,Rachel,2023-07-20_15h51.34.302,Rewa's Exp,2023.1.2,59.9972521256645,
Countdown_1.5s.mp4,green,red,left,Countdown_1.5s.jpg,12,0,12,0,,,,,,,,,0,4,4,3,,,,1311.3333579,1312.3008708999996,0.9675129999995988,,,92,,,,,,left,1,0.9509665999976278,,,,,,,,Rachel,2023-07-20_15h51.34.302,Rewa's Exp,2023.1.2,59.9972521256645,
Countdown_2s.mp4,green,red,left,Countdown_2s.jpg,12,0,12,0,,,,,,,,,0,5,5,5,,,,1316.2173240000002,1317.7507471,1.533423099999709,,,93,,,,,,left,1,1.5143491999988328,,,,,,,,Rachel,2023-07-20_15h51.34.302,Rewa's Exp,2023.1.2,59.9972521256645,
,,,,,12,0,12,0,,,,,,,,,,,,,,,,,,,,,,,,,,,,,,1332.4472057000003,1332.4472057000003,1332.4472057000003,space,4.868211999999403,,,Rachel,2023-07-20_15h51.34.302,Rewa's Exp,2023.1.2,59.9972521256645,
Countdown_2.5s.mp4,red,green,right,Countdown_2.5s.jpg,13,0,13,0,0,0,0,0,,,,,,,,,,,,1326.5558909000001,1327.7342426000005,1.1783517000003485,left,0,91,1.1521978000000672,,,,,,,,,,,,,,,Rachel,2023-07-20_15h51.34.302,Rewa's Exp,2023.1.2,59.9972521256645,
Countdown_2s.mp4,red,green,right,Countdown_2s.jpg,13,0,13,0,0,1,1,1,,,,,,,,,,,,1331.6319195000005,1333.1845908999994,1.5526713999988715,right,1,92,1.5227151999988564,,,,,,,,,,,,,,,Rachel,2023-07-20_15h51.34.302,Rewa's Exp,2023.1.2,59.9972521256645,
Countdown_2s.mp4,green,red,left,Countdown_2s.jpg,13,0,13,0,0,2,2,5,,,,,,,,,,,,1337.110175499999,1338.1339753999991,1.0237999000000855,left,1,93,1.0057234999985667,,,,,,,,,,,,,,,Rachel,2023-07-20_15h51.34.302,Rewa's Exp,2023.1.2,59.9972521256645,
Countdown_1.5s.mp4,green,red,left,Countdown_1.5s.jpg,13,0,13,0,0,3,3,3,,,,,,,,,,,,1342.0703724999994,1343.0511524000003,0.9807799000009254,left,1,94,0.9578655999994226,,,,,,,,,,,,,,,Rachel,2023-07-20_15h51.34.302,Rewa's Exp,2023.1.2,59.9972521256645,
Countdown_2.5s.mp4,green,red,left,Countdown_2.5s.jpg,13,0,13,0,0,4,4,4,,,,,,,,,,,,1346.9809900999999,1348.3007927999997,1.3198026999998547,left,1,95,1.2870163999996294,,,,,,,,,,,,,,,Rachel,2023-07-20_15h51.34.302,Rewa's Exp,2023.1.2,59.9972521256645,
Countdown_1.5s.mp4,red,green,right,Countdown_1.5s.jpg,13,0,13,0,0,5,5,2,,,,,,,,,,,,1352.2064808999994,1353.0509776999997,0.8444968000003428,right,1,96,0.8211473999981536,,,,,,,,,,,,,,,Rachel,2023-07-20_15h51.34.302,Rewa's Exp,2023.1.2,59.9972521256645,
Countdown_2.5s.mp4,green,red,left,Countdown_2.5s.jpg,13,0,13,0,,,,,0,0,0,4,,,,,,,,1356.9625779999997,1358.167275499999,1.2046974999993836,,,97,,1370.5314030999998,left,1,1.1846118999983446,,,,,,,,,,,Rachel,2023-07-20_15h51.34.302,Rewa's Exp,2023.1.2,59.9972521256645,
Countdown_2s.mp4,green,red,left,Countdown_2s.jpg,13,0,13,0,,,,,0,1,1,5,,,,,,,,1362.0811846000006,1363.2175612,1.136376599999494,,,98,,1375.6500035999998,left,1,1.115212699998665,,,,,,,,,,,Rachel,2023-07-20_15h51.34.302,Rewa's Exp,2023.1.2,59.9972521256645,
Countdown_2.5s.mp4,red,green,right,Countdown_2.5s.jpg,13,0,13,0,,,,,0,2,2,0,,,,,,,,1367.0973667999997,1368.4176445999992,1.3202777999995305,,,96,,1380.6661359000009,left,0,1.2979462999992393,,,,,,,,,,,Rachel,2023-07-20_15h51.34.302,Rewa's Exp,2023.1.2,59.9972521256645,
Countdown_1.5s.mp4,red,green,right,Countdown_1.5s.jpg,13,0,13,0,,,,,0,3,3,2,,,,,,,,1372.3352227000005,1373.5841310999995,1.2489083999989816,,,94,,1385.9040542000002,left,0,1.2197306999987632,,,,,,,,,,,Rachel,2023-07-20_15h51.34.302,Rewa's Exp,2023.1.2,59.9972521256645,
Countdown_1.5s.mp4,green,red,left,Countdown_1.5s.jpg,13,0,13,0,,,,,0,4,4,3,,,,,,,,1377.489789799999,1378.4177277999997,0.9279380000007222,,,95,,1391.0586389,left,1,0.8967032999989897,,,,,,,,,,,Rachel,2023-07-20_15h51.34.302,Rewa's Exp,2023.1.2,59.9972521256645,
Countdown_2s.mp4,red,green,right,Countdown_2s.jpg,13,0,13,0,,,,,0,5,5,1,,,,,,,,1382.3362413999994,1383.2012461000004,0.865004700001009,,,96,,1395.9050554999994,right,1,0.8352211999990686,,,,,,,,,,,Rachel,2023-07-20_15h51.34.302,Rewa's Exp,2023.1.2,59.9972521256645,
Countdown_1.5s.mp4,green,red,left,Countdown_1.5s.jpg,13,0,13,0,,,,,,,,,0,0,0,3,,,,1387.097632099999,1387.8843420000003,0.7867099000013695,,,97,,,,,,left,1,0.7620997999983956,,,,,,,,Rachel,2023-07-20_15h51.34.302,Rewa's Exp,2023.1.2,59.9972521256645,
Countdown_2s.mp4,green,red,left,Countdown_2s.jpg,13,0,13,0,,,,,,,,,0,1,1,5,,,,1391.769817899999,1392.9011997999996,1.1313819000006333,,,98,,,,,,left,1,1.1062942999997176,,,,,,,,Rachel,2023-07-20_15h51.34.302,Rewa's Exp,2023.1.2,59.9972521256645,
Countdown_2.5s.mp4,green,red,left,Countdown_2.5s.jpg,13,0,13,0,,,,,,,,,0,2,2,4,,,,1396.8503702999997,1398.5010355999993,1.6506652999996732,,,96,,,,,,right,0,1.6180296999991697,,,,,,,,Rachel,2023-07-20_15h51.34.302,Rewa's Exp,2023.1.2,59.9972521256645,
Countdown_1.5s.mp4,red,green,right,Countdown_1.5s.jpg,13,0,13,0,,,,,,,,,0,3,3,2,,,,1402.4432170999999,1403.2843022999996,0.8410851999997249,,,94,,,,,,left,0,0.8245809000000008,,,,,,,,Rachel,2023-07-20_15h51.34.302,Rewa's Exp,2023.1.2,59.9972521256645,
Countdown_2.5s.mp4,red,green,right,Countdown_2.5s.jpg,13,0,13,0,,,,,,,,,0,4,4,0,,,,1407.1961371999996,1408.4342318999998,1.238094700000147,,,92,,,,,,left,0,1.21576019999884,,,,,,,,Rachel,2023-07-20_15h51.34.302,Rewa's Exp,2023.1.2,59.9972521256645,
Countdown_2s.mp4,red,green,right,Countdown_2s.jpg,13,0,13,0,,,,,,,,,0,5,5,1,,,,1412.3553963000004,1413.5343426999998,1.178946399999404,,,93,,,,,,right,1,1.1610538999993878,,,,,,,,Rachel,2023-07-20_15h51.34.302,Rewa's Exp,2023.1.2,59.9972521256645,
,,,,,13,0,13,0,,,,,,,,,,,,,,,,,,,,,,,,,,,,,,1428.2307899000007,1428.2307899000007,1428.2307899000007,space,3.092985299999782,,,Rachel,2023-07-20_15h51.34.302,Rewa's Exp,2023.1.2,59.9972521256645,
Countdown_2s.mp4,red,green,right,Countdown_2s.jpg,14,0,14,0,0,0,0,1,,,,,,,,,,,,1420.5693421000005,1421.8846841999994,1.3153420999988157,right,1,94,1.298027999999249,,,,,,,,,,,,,,,Rachel,2023-07-20_15h51.34.302,Rewa's Exp,2023.1.2,59.9972521256645,
Countdown_2.5s.mp4,green,red,left,Countdown_2.5s.jpg,14,0,14,0,0,1,1,4,,,,,,,,,,,,1425.8505667,1427.234339399999,1.3837726999990991,left,1,95,1.3623425999994652,,,,,,,,,,,,,,,Rachel,2023-07-20_15h51.34.302,Rewa's Exp,2023.1.2,59.9972521256645,
Countdown_2s.mp4,green,red,left,Countdown_2s.jpg,14,0,14,0,0,2,2,5,,,,,,,,,,,,1431.1396219999997,1432.2842353000005,1.1446133000008558,left,1,96,1.120251599999392,,,,,,,,,,,,,,,Rachel,2023-07-20_15h51.34.302,Rewa's Exp,2023.1.2,59.9972521256645,
Countdown_1.5s.mp4,red,green,right,Countdown_1.5s.jpg,14,0,14,0,0,3,3,2,,,,,,,,,,,,1436.1709861999998,1437.1680741999999,0.9970880000000761,right,1,97,0.9763259999981528,,,,,,,,,,,,,,,Rachel,2023-07-20_15h51.34.302,Rewa's Exp,2023.1.2,59.9972521256645,
Countdown_1.5s.mp4,green,red,left,Countdown_1.5s.jpg,14,0,14,0,0,4,4,3,,,,,,,,,,,,1441.1420549999993,1441.9178421000006,0.7757871000012528,left,1,98,0.7504378999983601,,,,,,,,,,,,,,,Rachel,2023-07-20_15h51.34.302,Rewa's Exp,2023.1.2,59.9972521256645,
Countdown_2.5s.mp4,red,green,right,Countdown_2.5s.jpg,14,0,14,0,0,5,5,0,,,,,,,,,,,,1445.827267399999,1447.2842936000006,1.4570262000015646,right,1,99,1.4325486999987334,,,,,,,,,,,,,,,Rachel,2023-07-20_15h51.34.302,Rewa's Exp,2023.1.2,59.9972521256645,
Countdown_2s.mp4,red,green,right,Countdown_2s.jpg,14,0,14,0,,,,,0,0,0,1,,,,,,,,1451.184857199999,1452.334826899999,1.1499696999999287,,,100,,1464.7536424999998,right,1,1.130978299999697,,,,,,,,,,,Rachel,2023-07-20_15h51.34.302,Rewa's Exp,2023.1.2,59.9972521256645,
Countdown_1.5s.mp4,green,red,left,Countdown_1.5s.jpg,14,0,14,0,,,,,0,1,1,3,,,,,,,,1456.2649370999998,1457.3347342999996,1.0697971999998117,,,101,,1469.8337334000007,left,1,1.0430033999982697,,,,,,,,,,,Rachel,2023-07-20_15h51.34.302,Rewa's Exp,2023.1.2,59.9972521256645,
Countdown_2.5s.mp4,red,green,right,Countdown_2.5s.jpg,14,0,14,0,,,,,0,2,2,0,,,,,,,,1461.2496271999998,1462.5176560999998,1.2680288999999902,,,102,,1474.818475600001,right,1,1.2499482999992324,,,,,,,,,,,Rachel,2023-07-20_15h51.34.302,Rewa's Exp,2023.1.2,59.9972521256645,
Countdown_1.5s.mp4,red,green,right,Countdown_1.5s.jpg,14,0,14,0,,,,,0,3,3,2,,,,,,,,1466.4418362000006,1467.367894,0.9260577999993984,,,103,,1480.0106759999999,right,1,0.8978119000003062,,,,,,,,,,,Rachel,2023-07-20_15h51.34.302,Rewa's Exp,2023.1.2,59.9972521256645,
Countdown_2.5s.mp4,green,red,left,Countdown_2.5s.jpg,14,0,14,0,,,,,0,4,4,4,,,,,,,,1471.2774263000001,1472.401056399999,1.1236300999989908,,,104,,1484.8461826000002,left,1,1.0934760999989521,,,,,,,,,,,Rachel,2023-07-20_15h51.34.302,Rewa's Exp,2023.1.2,59.9972521256645,
Countdown_2s.mp4,green,red,left,Countdown_2s.jpg,14,0,14,0,,,,,0,5,5,5,,,,,,,,1476.307099999999,1477.5012928000006,1.194192800001474,,,105,,1489.8759514000012,left,1,1.1677211999995052,,,,,,,,,,,Rachel,2023-07-20_15h51.34.302,Rewa's Exp,2023.1.2,59.9972521256645,
Countdown_1.5s.mp4,red,green,right,Countdown_1.5s.jpg,14,0,14,0,,,,,,,,,0,0,0,2,,,,1481.4488075,1482.4178148,0.9690073000001576,,,106,,,,,,right,1,0.9387869999991381,,,,,,,,Rachel,2023-07-20_15h51.34.302,Rewa's Exp,2023.1.2,59.9972521256645,
Countdown_1.5s.mp4,green,red,left,Countdown_1.5s.jpg,14,0,14,0,,,,,,,,,0,1,1,3,,,,1486.3188923000007,1487.8011735999999,1.4822812999991584,,,104,,,,,,right,0,1.452232699999513,,,,,,,,Rachel,2023-07-20_15h51.34.302,Rewa's Exp,2023.1.2,59.9972521256645,
Countdown_2.5s.mp4,red,green,right,Countdown_2.5s.jpg,14,0,14,0,,,,,,,,,0,2,2,0,,,,1491.7094119999992,1492.4845739999992,0.7751619999999093,,,105,,,,,,right,1,0.7582383999979356,,,,,,,,Rachel,2023-07-20_15h51.34.302,Rewa's Exp,2023.1.2,59.9972521256645,
Countdown_2s.mp4,green,red,left,Countdown_2s.jpg,14,0,14,0,,,,,,,,,0,3,3,5,,,,1496.3921708999997,1497.3179914000002,0.9258205000005546,,,106,,,,,,left,1,0.9085935999992216,,,,,,,,Rachel,2023-07-20_15h51.34.302,Rewa's Exp,2023.1.2,59.9972521256645,
Countdown_2.5s.mp4,green,red,left,Countdown_2.5s.jpg,14,0,14,0,,,,,,,,,0,4,4,4,,,,1501.2325522,1502.5177785999995,1.2852263999993738,,,104,,,,,,right,0,1.2677669000004244,,,,,,,,Rachel,2023-07-20_15h51.34.302,Rewa's Exp,2023.1.2,59.9972521256645,
Countdown_2s.mp4,red,green,right,Countdown_2s.jpg,14,0,14,0,,,,,,,,,0,5,5,1,,,,1506.4319375000005,1507.2346141999997,0.8026766999992105,,,105,,,,,,right,1,0.7788588000003074,,,,,,,,Rachel,2023-07-20_15h51.34.302,Rewa's Exp,2023.1.2,59.9972521256645,
,,,,,14,0,14,0,,,,,,,,,,,,,,,,,,,,,,,,,,,,,,1521.9476329000008,1521.9476329000008,1521.9476329000008,space,3.049478700000691,,,Rachel,2023-07-20_15h51.34.302,Rewa's Exp,2023.1.2,59.9972521256645,
Countdown_2s.mp4,green,red,left,Countdown_2s.jpg,15,0,15,0,0,0,0,5,,,,,,,,,,,,1514.2139503999997,1515.5513700000001,1.3374196000004304,left,1,106,1.318487599999571,,,,,,,,,,,,,,,Rachel,2023-07-20_15h51.34.302,Rewa's Exp,2023.1.2,59.9972521256645,
Countdown_1.5s.mp4,green,red,left,Countdown_1.5s.jpg,15,0,15,0,0,1,1,3,,,,,,,,,,,,1519.4492662000002,1520.3678683999997,0.9186021999994409,right,0,104,0.899160999999367,,,,,,,,,,,,,,,Rachel,2023-07-20_15h51.34.302,Rewa's Exp,2023.1.2,59.9972521256645,
Countdown_2.5s.mp4,green,red,left,Countdown_2.5s.jpg,15,0,15,0,0,2,2,4,,,,,,,,,,,,1524.2938757999991,1525.6511459999992,1.35727020000013,left,1,105,1.3259358999985125,,,,,,,,,,,,,,,Rachel,2023-07-20_15h51.34.302,Rewa's Exp,2023.1.2,59.9972521256645,
Countdown_1.5s.mp4,red,green,right,Countdown_1.5s.jpg,15,0,15,0,0,3,3,2,,,,,,,,,,,,1529.5512773,1530.4846841999997,0.9334068999996816,right,1,106,0.9093116000003647,,,,,,,,,,,,,,,Rachel,2023-07-20_15h51.34.302,Rewa's Exp,2023.1.2,59.9972521256645,
Countdown_2.5s.mp4,red,green,right,Countdown_2.5s.jpg,15,0,15,0,0,4,4,0,,,,,,,,,,,,1534.4219402999997,1535.434641499999,1.0127011999993556,right,1,107,0.9807994999991934,,,,,,,,,,,,,,,Rachel,2023-07-20_15h51.34.302,Rewa's Exp,2023.1.2,59.9972521256645,
Countdown_2s.mp4,red,green,right,Countdown_2s.jpg,15,0,15,0,0,5,5,1,,,,,,,,,,,,1539.3824336999996,1540.3352671000002,0.9528334000005998,right,1,108,0.9244861999995919,,,,,,,,,,,,,,,Rachel,2023-07-20_15h51.34.302,Rewa's Exp,2023.1.2,59.9972521256645,
Countdown_2.5s.mp4,red,green,right,Countdown_2.5s.jpg,15,0,15,0,,,,,0,0,0,0,,,,,,,,1544.2874918000007,1545.3848050000006,1.0973131999999168,,,109,,1557.8563019000012,right,1,1.0758948999991844,,,,,,,,,,,Rachel,2023-07-20_15h51.34.302,Rewa's Exp,2023.1.2,59.9972521256645,
Countdown_1.5s.mp4,red,green,right,Countdown_1.5s.jpg,15,0,15,0,,,,,0,1,1,2,,,,,,,,1549.2901568000007,1550.1849343000004,0.8947774999996909,,,110,,1562.8589979000008,right,1,0.8733610999988741,,,,,,,,,,,Rachel,2023-07-20_15h51.34.302,Rewa's Exp,2023.1.2,59.9972521256645,
Countdown_1.5s.mp4,green,red,left,Countdown_1.5s.jpg,15,0,15,0,,,,,0,2,2,3,,,,,,,,1554.0896091000004,1554.9514255000004,0.8618163999999524,,,111,,1567.6583967000006,left,1,0.8421351999986655,,,,,,,,,,,Rachel,2023-07-20_15h51.34.302,Rewa's Exp,2023.1.2,59.9972521256645,
Countdown_2.5s.mp4,green,red,left,Countdown_2.5s.jpg,15,0,15,0,,,,,0,3,3,4,,,,,,,,1558.8504549,1560.3348015000001,1.4843466000002081,,,112,,1572.419243100001,left,1,1.4579881999998179,,,,,,,,,,,Rachel,2023-07-20_15h51.34.302,Rewa's Exp,2023.1.2,59.9972521256645,
Countdown_2s.mp4,red,green,right,Countdown_2s.jpg,15,0,15,0,,,,,0,4,4,1,,,,,,,,1564.2521155000004,1565.0849319,0.8328163999995013,,,113,,1577.8208190000005,right,1,0.8086539999985689,,,,,,,,,,,Rachel,2023-07-20_15h51.34.302,Rewa's Exp,2023.1.2,59.9972521256645,
Countdown_2s.mp4,green,red,left,Countdown_2s.jpg,15,0,15,0,,,,,0,5,5,5,,,,,,,,1569.0012785999998,1570.634755099999,1.633476499999233,,,111,,1582.5701222000007,right,0,1.602189699999144,,,,,,,,,,,Rachel,2023-07-20_15h51.34.302,Rewa's Exp,2023.1.2,59.9972521256645,
Countdown_2s.mp4,red,green,right,Countdown_2s.jpg,15,0,15,0,,,,,,,,,0,0,0,1,,,,1574.5631251999994,1576.1679909000004,1.604865700001028,,,109,,,,,,left,0,1.576846599999044,,,,,,,,Rachel,2023-07-20_15h51.34.302,Rewa's Exp,2023.1.2,59.9972521256645,
Countdown_1.5s.mp4,red,green,right,Countdown_1.5s.jpg,15,0,15,0,,,,,,,,,0,1,1,2,,,,1580.0902687000007,1581.3179623999995,1.227693699998781,,,110,,,,,,right,1,1.2014675999998872,,,,,,,,Rachel,2023-07-20_15h51.34.302,Rewa's Exp,2023.1.2,59.9972521256645,
Countdown_1.5s.mp4,green,red,left,Countdown_1.5s.jpg,15,0,15,0,,,,,,,,,0,2,2,3,,,,1585.240574299999,1586.3180819,1.0775076000008994,,,108,,,,,,right,0,1.0595931999996537,,,,,,,,Rachel,2023-07-20_15h51.34.302,Rewa's Exp,2023.1.2,59.9972521256645,
Countdown_2.5s.mp4,red,green,right,Countdown_2.5s.jpg,15,0,15,0,,,,,,,,,0,3,3,0,,,,1590.2330419,1591.9181211000005,1.685079200000473,,,109,,,,,,right,1,1.6579012000001967,,,,,,,,Rachel,2023-07-20_15h51.34.302,Rewa's Exp,2023.1.2,59.9972521256645,
Countdown_2s.mp4,green,red,left,Countdown_2s.jpg,15,0,15,0,,,,,,,,,0,4,4,5,,,,1595.8313164,1596.8680508999996,1.0367344999995112,,,107,,,,,,right,0,1.013331799998923,,,,,,,,Rachel,2023-07-20_15h51.34.302,Rewa's Exp,2023.1.2,59.9972521256645,
Countdown_2.5s.mp4,green,red,left,Countdown_2.5s.jpg,15,0,15,0,,,,,,,,,0,5,5,4,,,,1600.8413556000005,1602.518182499999,1.6768268999985594,,,105,,,,,,right,0,1.6581077999999252,,,,,,,,Rachel,2023-07-20_15h51.34.302,Rewa's Exp,2023.1.2,59.9972521256645,
,,,,,15,0,15,0,,,,,,,,,,,,,,,,,,,,,,,,,,,,,,1617.2314428999998,1617.2314428999998,1617.2314428999998,space,8.74877379999998,,,Rachel,2023-07-20_15h51.34.302,Rewa's Exp,2023.1.2,59.9972521256645,
Countdown_1.5s.mp4,red,green,right,Countdown_1.5s.jpg,16,0,16,0,0,0,0,2,,,,,,,,,,,,1615.1998044000002,1616.2180660000004,1.0182616000001872,left,0,103,0.9875415000005887,,,,,,,,,,,,,,,Rachel,2023-07-20_15h51.34.302,Rewa's Exp,2023.1.2,59.9972521256645,
Countdown_2.5s.mp4,red,green,right,Countdown_2.5s.jpg,16,0,16,0,0,1,1,0,,,,,,,,,,,,1620.1022076,1621.434773,1.3325654000000213,left,0,101,1.3101330999979837,,,,,,,,,,,,,,,Rachel,2023-07-20_15h51.34.302,Rewa's Exp,2023.1.2,59.9972521256645,
Countdown_2s.mp4,green,red,left,Countdown_2s.jpg,16,0,16,0,0,2,2,5,,,,,,,,,,,,1625.3819744999992,1626.484680999999,1.1027064999998402,left,1,102,1.0783234999998967,,,,,,,,,,,,,,,Rachel,2023-07-20_15h51.34.302,Rewa's Exp,2023.1.2,59.9972521256645,
Countdown_2s.mp4,red,green,right,Countdown_2s.jpg,16,0,16,0,0,3,3,1,,,,,,,,,,,,1630.3776117999996,1631.5013675,1.1237557000004017,left,0,100,1.1058878999992885,,,,,,,,,,,,,,,Rachel,2023-07-20_15h51.34.302,Rewa's Exp,2023.1.2,59.9972521256645,
Countdown_2.5s.mp4,green,red,left,Countdown_2.5s.jpg,16,0,16,0,0,4,4,4,,,,,,,,,,,,1635.4120104000003,1636.8019362999994,1.3899258999990707,left,1,101,1.3606528999989678,,,,,,,,,,,,,,,Rachel,2023-07-20_15h51.34.302,Rewa's Exp,2023.1.2,59.9972521256645,
Countdown_1.5s.mp4,green,red,left,Countdown_1.5s.jpg,16,0,16,0,0,5,5,3,,,,,,,,,,,,1640.7727521000006,1641.768196,0.9954438999993727,left,1,102,0.9752814999992552,,,,,,,,,,,,,,,Rachel,2023-07-20_15h51.34.302,Rewa's Exp,2023.1.2,59.9972521256645,
Countdown_1.5s.mp4,green,red,left,Countdown_1.5s.jpg,16,0,16,0,,,,,0,0,0,3,,,,,,,,1645.7206379999998,1646.9848379999994,1.2641999999996187,,,103,,1659.2894506000011,left,1,1.2436550999991596,,,,,,,,,,,Rachel,2023-07-20_15h51.34.302,Rewa's Exp,2023.1.2,59.9972521256645,
Countdown_2s.mp4,red,green,right,Countdown_2s.jpg,16,0,16,0,,,,,0,1,1,1,,,,,,,,1650.8828877999995,1651.8848117999996,1.0019240000001446,,,104,,1664.4515845000005,right,1,0.9844860999983212,,,,,,,,,,,Rachel,2023-07-20_15h51.34.302,Rewa's Exp,2023.1.2,59.9972521256645,
Countdown_1.5s.mp4,red,green,right,Countdown_1.5s.jpg,16,0,16,0,,,,,0,2,2,2,,,,,,,,1655.8283003999995,1656.8681076999992,1.0398072999996657,,,105,,1669.3970526000012,right,1,1.007319299998926,,,,,,,,,,,Rachel,2023-07-20_15h51.34.302,Rewa's Exp,2023.1.2,59.9972521256645,
Countdown_2.5s.mp4,red,green,right,Countdown_2.5s.jpg,16,0,16,0,,,,,0,3,3,0,,,,,,,,1660.7725861999998,1661.7845224999992,1.0119362999994337,,,103,,1674.3413934,left,0,0.982403300000442,,,,,,,,,,,Rachel,2023-07-20_15h51.34.302,Rewa's Exp,2023.1.2,59.9972521256645,
Countdown_2s.mp4,green,red,left,Countdown_2s.jpg,16,0,16,0,,,,,0,4,4,5,,,,,,,,1665.736737799999,1666.6015897999996,0.8648520000006101,,,104,,1679.3055597000002,left,1,0.8349665999976423,,,,,,,,,,,Rachel,2023-07-20_15h51.34.302,Rewa's Exp,2023.1.2,59.9972521256645,
Countdown_2.5s.mp4,green,red,left,Countdown_2.5s.jpg,16,0,16,0,,,,,0,5,5,4,,,,,,,,1670.4878880000006,1671.4349603,0.9470722999994905,,,105,,1684.0567637000004,left,1,0.9230225999981485,,,,,,,,,,,Rachel,2023-07-20_15h51.34.302,Rewa's Exp,2023.1.2,59.9972521256645,
Countdown_2.5s.mp4,red,green,right,Countdown_2.5s.jpg,16,0,16,0,,,,,,,,,0,0,0,0,,,,1675.3393002999992,1676.4519410999992,1.1126408000000083,,,106,,,,,,right,1,1.080453499998839,,,,,,,,Rachel,2023-07-20_15h51.34.302,Rewa's Exp,2023.1.2,59.9972521256645,
Countdown_2.5s.mp4,green,red,left,Countdown_2.5s.jpg,16,0,16,0,,,,,,,,,0,1,1,4,,,,1680.3733382,1681.418278,1.0449398000000656,,,107,,,,,,left,1,1.0225455999989208,,,,,,,,Rachel,2023-07-20_15h51.34.302,Rewa's Exp,2023.1.2,59.9972521256645,
Countdown_2s.mp4,green,red,left,Countdown_2s.jpg,16,0,16,0,,,,,,,,,0,2,2,5,,,,1685.3514449999993,1686.185253999999,0.8338089999997464,,,105,,,,,,right,0,0.8121568999995361,,,,,,,,Rachel,2023-07-20_15h51.34.302,Rewa's Exp,2023.1.2,59.9972521256645,
Countdown_1.5s.mp4,green,red,left,Countdown_1.5s.jpg,16,0,16,0,,,,,,,,,0,3,3,3,,,,1690.1088198000007,1691.1516402999996,1.0428204999989248,,,106,,,,,,left,1,1.0142798999986553,,,,,,,,Rachel,2023-07-20_15h51.34.302,Rewa's Exp,2023.1.2,59.9972521256645,
Countdown_2s.mp4,red,green,right,Countdown_2s.jpg,16,0,16,0,,,,,,,,,0,4,4,1,,,,1695.0598051999996,1695.9183005000004,0.8584953000008682,,,107,,,,,,right,1,0.8409624999985681,,,,,,,,Rachel,2023-07-20_15h51.34.302,Rewa's Exp,2023.1.2,59.9972521256645,
Countdown_1.5s.mp4,red,green,right,Countdown_1.5s.jpg,16,0,16,0,,,,,,,,,0,5,5,2,,,,1699.8239518,1700.8515944,1.0276426000000356,,,105,,,,,,left,0,1.0038488999998663,,,,,,,,Rachel,2023-07-20_15h51.34.302,Rewa's Exp,2023.1.2,59.9972521256645,
,,,,,16,0,16,0,,,,,,,,,,,,,,,,,,,,,,,,,,,,,,1715.5313556,1715.5313556,1715.5313556,space,32.7368177999997,,,Rachel,2023-07-20_15h51.34.302,Rewa's Exp,2023.1.2,59.9972521256645,
Countdown_2s.mp4,red,green,right,Countdown_2s.jpg,17,0,17,0,0,0,0,1,,,,,,,,,,,,1737.5098788000005,1738.7349353,1.2250564999994822,right,1,106,1.207137799998236,,,,,,,,,,,,,,,Rachel,2023-07-20_15h51.34.302,Rewa's Exp,2023.1.2,59.9972521256645,
Countdown_2.5s.mp4,green,red,left,Countdown_2.5s.jpg,17,0,17,0,0,1,1,4,,,,,,,,,,,,1742.6730135999996,1743.9019178999997,1.2289043000000675,left,1,107,1.2031536999984382,,,,,,,,,,,,,,,Rachel,2023-07-20_15h51.34.302,Rewa's Exp,2023.1.2,59.9972521256645,
Countdown_1.5s.mp4,red,green,right,Countdown_1.5s.jpg,17,0,17,0,0,2,2,2,,,,,,,,,,,,1747.8328807999997,1748.8184343000003,0.9855535000006057,right,1,108,0.9541051999985939,,,,,,,,,,,,,,,Rachel,2023-07-20_15h51.34.302,Rewa's Exp,2023.1.2,59.9972521256645,
Countdown_2.5s.mp4,red,green,right,Countdown_2.5s.jpg,17,0,17,0,0,3,3,0,,,,,,,,,,,,1752.7087949999996,1754.318382299999,1.6095872999994754,right,1,109,1.590875199999573,,,,,,,,,,,,,,,Rachel,2023-07-20_15h51.34.302,Rewa's Exp,2023.1.2,59.9972521256645,
Countdown_2s.mp4,green,red,left,Countdown_2s.jpg,17,0,17,0,0,4,4,5,,,,,,,,,,,,1758.2581206999994,1759.0019461000002,0.7438254000007873,left,1,110,0.7213798999982828,,,,,,,,,,,,,,,Rachel,2023-07-20_15h51.34.302,Rewa's Exp,2023.1.2,59.9972521256645,
Countdown_1.5s.mp4,green,red,left,Countdown_1.5s.jpg,17,0,17,0,0,5,5,3,,,,,,,,,,,,1762.905023799999,1763.735566799999,0.8305430000000342,left,1,111,0.8020703999991383,,,,,,,,,,,,,,,Rachel,2023-07-20_15h51.34.302,Rewa's Exp,2023.1.2,59.9972521256645,
Countdown_1.5s.mp4,green,red,left,Countdown_1.5s.jpg,17,0,17,0,,,,,0,0,0,3,,,,,,,,1767.7055661000004,1768.7683869999992,1.0628208999987692,,,112,,1781.2743816000002,left,1,1.0336704999990616,,,,,,,,,,,Rachel,2023-07-20_15h51.34.302,Rewa's Exp,2023.1.2,59.9972521256645,
Countdown_1.5s.mp4,red,green,right,Countdown_1.5s.jpg,17,0,17,0,,,,,0,1,1,2,,,,,,,,1772.6558283000004,1773.4277864999995,0.7719581999990623,,,113,,1786.2246068000004,right,1,0.7392690999986371,,,,,,,,,,,Rachel,2023-07-20_15h51.34.302,Rewa's Exp,2023.1.2,59.9972521256645,
Countdown_2s.mp4,red,green,right,Countdown_2s.jpg,17,0,17,0,,,,,0,2,2,1,,,,,,,,1777.3655986000003,1778.5016342999998,1.136035699999411,,,114,,1790.934449100001,right,1,1.118186699999569,,,,,,,,,,,Rachel,2023-07-20_15h51.34.302,Rewa's Exp,2023.1.2,59.9972521256645,
Countdown_2s.mp4,green,red,left,Countdown_2s.jpg,17,0,17,0,,,,,0,3,3,5,,,,,,,,1782.3932742999996,1783.4517554999993,1.0584811999997328,,,115,,1795.9620384999998,left,1,1.0265060999990965,,,,,,,,,,,Rachel,2023-07-20_15h51.34.302,Rewa's Exp,2023.1.2,59.9972521256645,
Countdown_2.5s.mp4,green,red,left,Countdown_2.5s.jpg,17,0,17,0,,,,,0,4,4,4,,,,,,,,1787.3493372999992,1788.7351602999997,1.3858230000005278,,,116,,1800.9181391000002,left,1,1.3675765999996656,,,,,,,,,,,Rachel,2023-07-20_15h51.34.302,Rewa's Exp,2023.1.2,59.9972521256645,
Countdown_2.5s.mp4,red,green,right,Countdown_2.5s.jpg,17,0,17,0,,,,,0,5,5,0,,,,,,,,1792.6766397000001,1793.6192089000006,0.9425692000004346,,,117,,1806.2446605000005,right,1,0.9198884999987058,,,,,,,,,,,Rachel,2023-07-20_15h51.34.302,Rewa's Exp,2023.1.2,59.9972521256645,
Countdown_1.5s.mp4,red,green,right,Countdown_1.5s.jpg,17,0,17,0,,,,,,,,,0,0,0,2,,,,1797.5570777999992,1798.3018958999992,0.744818099999975,,,118,,,,,,right,1,0.7187589999994088,,,,,,,,Rachel,2023-07-20_15h51.34.302,Rewa's Exp,2023.1.2,59.9972521256645,
Countdown_2.5s.mp4,green,red,left,Countdown_2.5s.jpg,17,0,17,0,,,,,,,,,0,1,1,4,,,,1802.1966007,1803.5521622000006,1.3555615000004764,,,119,,,,,,left,1,1.3354110999989643,,,,,,,,Rachel,2023-07-20_15h51.34.302,Rewa's Exp,2023.1.2,59.9972521256645,
Countdown_2.5s.mp4,red,green,right,Countdown_2.5s.jpg,17,0,17,0,,,,,,,,,0,2,2,0,,,,1807.5217753999996,1809.4352363999997,1.9134610000000976,,,120,,,,,,right,1,1.8906901999998809,,,,,,,,Rachel,2023-07-20_15h51.34.302,Rewa's Exp,2023.1.2,59.9972521256645,
Countdown_1.5s.mp4,green,red,left,Countdown_1.5s.jpg,17,0,17,0,,,,,,,,,0,3,3,3,,,,1813.3707879999993,1814.2185548999996,0.8477669000003516,,,121,,,,,,left,1,0.8161001999978907,,,,,,,,Rachel,2023-07-20_15h51.34.302,Rewa's Exp,2023.1.2,59.9972521256645,
Countdown_2s.mp4,red,green,right,Countdown_2s.jpg,17,0,17,0,,,,,,,,,0,4,4,1,,,,1818.1315545000007,1819.0353807000001,0.9038261999994575,,,122,,,,,,right,1,0.880889499998375,,,,,,,,Rachel,2023-07-20_15h51.34.302,Rewa's Exp,2023.1.2,59.9972521256645,
Countdown_2s.mp4,green,red,left,Countdown_2s.jpg,17,0,17,0,,,,,,,,,0,5,5,5,,,,1822.9247413000003,1824.6184810000004,1.693739700000151,,,123,,,,,,left,1,1.6706221000004007,,,,,,,,Rachel,2023-07-20_15h51.34.302,Rewa's Exp,2023.1.2,59.9972521256645,
,,,,,17,0,17,0,,,,,,,,,,,,,,,,,,,,,,,,,,,,,,1839.3151878999997,1839.3151878999997,1839.3151878999997,space,2.729336599999442,,,Rachel,2023-07-20_15h51.34.302,Rewa's Exp,2023.1.2,59.9972521256645,
,,,,,,,,,,,,,,,,,,,,,,,,,,,,,,,,,,,,,,,,,,,1842.0650059,1847.0648156999996,,,,,,
