Countdown,color1,color2,correct,screenshot,trials.thisRepN,trials.thisTrialN,trials.thisN,trials.thisIndex,trials_6040.thisRepN,trials_6040.thisTrialN,trials_6040.thisN,trials_6040.thisIndex,trials_5743.thisRepN,trials_5743.thisTrialN,trials_5743.thisN,trials_5743.thisIndex,trials_5446.thisRepN,trials_5446.thisTrialN,trials_5446.thisN,trials_5446.thisIndex,key_resp_2.started,key_resp_2.keys,key_resp_2.rt,Videoshowstart,Videoshowstop,VideoshowRT,response.keys,response.corr,response.rt,total_score,Left_3.started,response_2.keys,response_2.corr,response_2.rt,response_3.keys,response_3.corr,response_3.rt,text_2.started,text_5.started,text_6.started,key_resp.keys,key_resp.rt,end_2.started,end_2.stopped,participant,date,expName,psychopyVersion,frameRate,
,,,,,,,,,,,,,,,,,,,,,34.43788699999999,space,30.594953200000077,,,,,,,,,,,,,,,,,,,,,,Tokka,2023-07-20_13h53.25.030,Rewa's Exp,2023.1.2,59.986419074716224,
Countdown_1.5s.mp4,green,red,left,Countdown_1.5s.jpg,0,0,0,0,0,0,0,3,,,,,,,,,,,,61.48464480000001,62.55122449999999,1.066579699999977,left,1,1.0406306000000427,1,,,,,,,,,,,,,,,Tokka,2023-07-20_13h53.25.030,Rewa's Exp,2023.1.2,59.986419074716224,
Countdown_2s.mp4,green,red,left,Countdown_2s.jpg,0,0,0,0,0,1,1,5,,,,,,,,,,,,66.54053379999999,67.45196190000001,0.9114281000000233,left,1,0.8897229000000948,2,,,,,,,,,,,,,,,Tokka,2023-07-20_13h53.25.030,Rewa's Exp,2023.1.2,59.986419074716224,
Countdown_2.5s.mp4,red,green,right,Countdown_2.5s.jpg,0,0,0,0,0,2,2,0,,,,,,,,,,,,71.4658354,72.35148220000002,0.8856468000000177,left,0,0.8606757000000584,0,,,,,,,,,,,,,,,Tokka,2023-07-20_13h53.25.030,Rewa's Exp,2023.1.2,59.986419074716224,
Countdown_2.5s.mp4,green,red,left,Countdown_2.5s.jpg,0,0,0,0,0,3,3,4,,,,,,,,,,,,76.2827466,77.36792550000001,1.0851789000000167,left,1,1.059487200000035,1,,,,,,,,,,,,,,,Tokka,2023-07-20_13h53.25.030,Rewa's Exp,2023.1.2,59.986419074716224,
Countdown_1.5s.mp4,red,green,right,Countdown_1.5s.jpg,0,0,0,0,0,4,4,2,,,,,,,,,,,,81.33873500000004,82.15128120000003,0.8125461999999857,right,1,0.7866337000000385,2,,,,,,,,,,,,,,,Tokka,2023-07-20_13h53.25.030,Rewa's Exp,2023.1.2,59.986419074716224,
Countdown_2s.mp4,red,green,right,Countdown_2s.jpg,0,0,0,0,0,5,5,1,,,,,,,,,,,,86.07938130000002,87.43460429999999,1.3552229999999668,right,1,1.3256722000000423,3,,,,,,,,,,,,,,,Tokka,2023-07-20_13h53.25.030,Rewa's Exp,2023.1.2,59.986419074716224,
Countdown_1.5s.mp4,red,green,right,Countdown_1.5s.jpg,0,0,0,0,,,,,0,0,0,2,,,,,,,,91.20420360000003,92.3011932,1.0969895999999721,,,,1,97.51149449999997,left,0,1.064971900000046,,,,,,,,,,,Tokka,2023-07-20_13h53.25.030,Rewa's Exp,2023.1.2,59.986419074716224,
Countdown_2.5s.mp4,red,green,right,Countdown_2.5s.jpg,0,0,0,0,,,,,0,1,1,0,,,,,,,,96.20907729999999,97.2016592,0.9925819000000047,,,,-1,102.51641739999997,left,0,0.9650349000000347,,,,,,,,,,,Tokka,2023-07-20_13h53.25.030,Rewa's Exp,2023.1.2,59.986419074716224,
Countdown_2s.mp4,green,red,left,Countdown_2s.jpg,0,0,0,0,,,,,0,2,2,5,,,,,,,,101.17479270000001,102.15136000000001,0.9765672999999992,,,,-3,107.4821392,right,0,0.9440932000000544,,,,,,,,,,,Tokka,2023-07-20_13h53.25.030,Rewa's Exp,2023.1.2,59.986419074716224,
Countdown_2.5s.mp4,green,red,left,Countdown_2.5s.jpg,0,0,0,0,,,,,0,3,3,4,,,,,,,,106.0573688,106.98465500000003,0.9272862000000259,,,,-2,112.36473139999998,left,1,0.9098792000000344,,,,,,,,,,,Tokka,2023-07-20_13h53.25.030,Rewa's Exp,2023.1.2,59.986419074716224,
Countdown_2s.mp4,red,green,right,Countdown_2s.jpg,0,0,0,0,,,,,0,4,4,1,,,,,,,,110.9466764,111.75146219999999,0.8047857999999906,,,,-1,117.25397709999999,right,1,0.7717122000000245,,,,,,,,,,,Tokka,2023-07-20_13h53.25.030,Rewa's Exp,2023.1.2,59.986419074716224,
Countdown_1.5s.mp4,green,red,left,Countdown_1.5s.jpg,0,0,0,0,,,,,0,5,5,3,,,,,,,,115.67577620000003,116.50139469999999,0.8256184999999618,,,,0,121.9830968,left,1,0.8018115000000421,,,,,,,,,,,Tokka,2023-07-20_13h53.25.030,Rewa's Exp,2023.1.2,59.986419074716224,
Countdown_2.5s.mp4,red,green,right,Countdown_2.5s.jpg,0,0,0,0,,,,,,,,,0,0,0,0,,,,120.23071850000002,121.55122800000004,1.3205095000000142,,,,1,,,,,right,1,1.2880897000000573,,,,,,,,Tokka,2023-07-20_13h53.25.030,Rewa's Exp,2023.1.2,59.986419074716224,
Countdown_1.5s.mp4,red,green,right,Countdown_1.5s.jpg,0,0,0,0,,,,,,,,,0,1,1,2,,,,125.49013920000004,126.53508780000004,1.044948599999998,,,,-1,,,,,left,0,1.019663200000025,,,,,,,,Tokka,2023-07-20_13h53.25.030,Rewa's Exp,2023.1.2,59.986419074716224,
Countdown_2s.mp4,red,green,right,Countdown_2s.jpg,0,0,0,0,,,,,,,,,0,2,2,1,,,,130.4489916,131.60186370000002,1.1528721000000246,,,,-3,,,,,left,0,1.1250402000000577,,,,,,,,Tokka,2023-07-20_13h53.25.030,Rewa's Exp,2023.1.2,59.986419074716224,
Countdown_2.5s.mp4,green,red,left,Countdown_2.5s.jpg,0,0,0,0,,,,,,,,,0,3,3,4,,,,135.53830020000004,136.6846875,1.146387299999958,,,,-2,,,,,left,1,1.1230573000000277,,,,,,,,Tokka,2023-07-20_13h53.25.030,Rewa's Exp,2023.1.2,59.986419074716224,
Countdown_2s.mp4,green,red,left,Countdown_2s.jpg,0,0,0,0,,,,,,,,,0,4,4,5,,,,140.63308850000004,141.46809390000004,0.8350054,,,,-1,,,,,left,1,0.8128459000000134,,,,,,,,Tokka,2023-07-20_13h53.25.030,Rewa's Exp,2023.1.2,59.986419074716224,
Countdown_1.5s.mp4,green,red,left,Countdown_1.5s.jpg,0,0,0,0,,,,,,,,,0,5,5,3,,,,145.43978420000002,146.3683946,0.9286103999999682,,,,0,,,,,left,1,0.9099449000000277,,,,,,,,Tokka,2023-07-20_13h53.25.030,Rewa's Exp,2023.1.2,59.986419074716224,
,,,,,0,0,0,0,,,,,,,,,,,,,,,,,,,,,,,,,,,,,,153.8031542,153.8031542,153.8031542,space,4.894417100000055,,,Tokka,2023-07-20_13h53.25.030,Rewa's Exp,2023.1.2,59.986419074716224,
Countdown_2s.mp4,red,green,right,Countdown_2s.jpg,1,0,1,0,0,0,0,1,,,,,,,,,,,,155.1922298,156.3852746,1.1930447999999956,right,1,1.1650181000000543,1,,,,,,,,,,,,,,,Tokka,2023-07-20_13h53.25.030,Rewa's Exp,2023.1.2,59.986419074716224,
Countdown_2.5s.mp4,green,red,left,Countdown_2.5s.jpg,1,0,1,0,0,1,1,4,,,,,,,,,,,,160.3241557,160.86984080000002,0.5456851000000142,left,1,0.5217448000000218,2,,,,,,,,,,,,,,,Tokka,2023-07-20_13h53.25.030,Rewa's Exp,2023.1.2,59.986419074716224,
Countdown_1.5s.mp4,green,red,left,Countdown_1.5s.jpg,1,0,1,0,0,2,2,3,,,,,,,,,,,,164.76073890000004,165.3849685,0.6242295999999783,left,1,0.6052004000000579,3,,,,,,,,,,,,,,,Tokka,2023-07-20_13h53.25.030,Rewa's Exp,2023.1.2,59.986419074716224,
Countdown_2s.mp4,green,red,left,Countdown_2s.jpg,1,0,1,0,0,3,3,5,,,,,,,,,,,,169.2771242,169.8850858,0.6079616000000101,left,1,0.5763300000000413,4,,,,,,,,,,,,,,,Tokka,2023-07-20_13h53.25.030,Rewa's Exp,2023.1.2,59.986419074716224,
Countdown_1.5s.mp4,red,green,right,Countdown_1.5s.jpg,1,0,1,0,0,4,4,2,,,,,,,,,,,,173.79891480000003,174.35284740000003,0.553932599999996,right,1,0.5268952000000127,5,,,,,,,,,,,,,,,Tokka,2023-07-20_13h53.25.030,Rewa's Exp,2023.1.2,59.986419074716224,
Countdown_2.5s.mp4,red,green,right,Countdown_2.5s.jpg,1,0,1,0,0,5,5,0,,,,,,,,,,,,178.27932320000002,179.4179749,1.1386516999999685,right,1,1.1101710000000367,6,,,,,,,,,,,,,,,Tokka,2023-07-20_13h53.25.030,Rewa's Exp,2023.1.2,59.986419074716224,
Countdown_2.5s.mp4,green,red,left,Countdown_2.5s.jpg,1,0,1,0,,,,,0,0,0,4,,,,,,,,183.31346020000007,183.91819319999996,0.6047329999998965,,,,7,189.62077850000003,left,1,0.5806804000000056,,,,,,,,,,,Tokka,2023-07-20_13h53.25.030,Rewa's Exp,2023.1.2,59.986419074716224,
Countdown_1.5s.mp4,green,red,left,Countdown_1.5s.jpg,1,0,1,0,,,,,0,1,1,3,,,,,,,,187.82981939999996,188.7851129,0.9552935000000389,,,,5,194.13716869999996,right,0,0.9363699000000452,,,,,,,,,,,Tokka,2023-07-20_13h53.25.030,Rewa's Exp,2023.1.2,59.986419074716224,
Countdown_1.5s.mp4,red,green,right,Countdown_1.5s.jpg,1,0,1,0,,,,,0,2,2,2,,,,,,,,192.70662020000003,193.63737959999997,0.9307593999999426,,,,6,199.01394800000003,right,1,0.8991689000000633,,,,,,,,,,,Tokka,2023-07-20_13h53.25.030,Rewa's Exp,2023.1.2,59.986419074716224,
Countdown_2s.mp4,red,green,right,Countdown_2s.jpg,1,0,1,0,,,,,0,3,3,1,,,,,,,,197.55633760000006,198.36818050000005,0.8118428999999878,,,,7,203.86371069999996,right,1,0.7941596000000573,,,,,,,,,,,Tokka,2023-07-20_13h53.25.030,Rewa's Exp,2023.1.2,59.986419074716224,
Countdown_2.5s.mp4,red,green,right,Countdown_2.5s.jpg,1,0,1,0,,,,,0,4,4,0,,,,,,,,202.28394050000003,203.11858810000007,0.8346476000000393,,,,5,208.59133839999993,left,0,0.8030603000000838,,,,,,,,,,,Tokka,2023-07-20_13h53.25.030,Rewa's Exp,2023.1.2,59.986419074716224,
Countdown_2s.mp4,green,red,left,Countdown_2s.jpg,1,0,1,0,,,,,0,5,5,5,,,,,,,,207.07331749999997,207.70246760000003,0.6291501000000608,,,,6,213.3806419,left,1,0.5973837999999887,,,,,,,,,,,Tokka,2023-07-20_13h53.25.030,Rewa's Exp,2023.1.2,59.986419074716224,
Countdown_1.5s.mp4,green,red,left,Countdown_1.5s.jpg,1,0,1,0,,,,,,,,,0,0,0,3,,,,211.63944480000004,212.50236339999998,0.8629185999999436,,,,7,,,,,left,1,0.8380725000000666,,,,,,,,Tokka,2023-07-20_13h53.25.030,Rewa's Exp,2023.1.2,59.986419074716224,
Countdown_2.5s.mp4,green,red,left,Countdown_2.5s.jpg,1,0,1,0,,,,,,,,,0,1,1,4,,,,216.40661649999998,217.23546519999996,0.8288486999999805,,,,8,,,,,left,1,0.7990738000000874,,,,,,,,Tokka,2023-07-20_13h53.25.030,Rewa's Exp,2023.1.2,59.986419074716224,
Countdown_2s.mp4,red,green,right,Countdown_2s.jpg,1,0,1,0,,,,,,,,,0,2,2,1,,,,221.15755670000004,221.98547379999997,0.8279170999999224,,,,9,,,,,right,1,0.8083244000000605,,,,,,,,Tokka,2023-07-20_13h53.25.030,Rewa's Exp,2023.1.2,59.986419074716224,
Countdown_1.5s.mp4,red,green,right,Countdown_1.5s.jpg,1,0,1,0,,,,,,,,,0,3,3,2,,,,225.91790529999997,226.9685215,1.0506162000000359,,,,10,,,,,right,1,1.023570100000029,,,,,,,,Tokka,2023-07-20_13h53.25.030,Rewa's Exp,2023.1.2,59.986419074716224,
Countdown_2s.mp4,green,red,left,Countdown_2s.jpg,1,0,1,0,,,,,,,,,0,4,4,5,,,,230.91259859999997,231.75161429999997,0.8390157000000045,,,,11,,,,,left,1,0.8130604000000403,,,,,,,,Tokka,2023-07-20_13h53.25.030,Rewa's Exp,2023.1.2,59.986419074716224,
Countdown_2.5s.mp4,red,green,right,Countdown_2.5s.jpg,1,0,1,0,,,,,,,,,0,5,5,0,,,,235.65843480000007,236.65238960000005,0.9939547999999832,,,,12,,,,,right,1,0.9714559000000236,,,,,,,,Tokka,2023-07-20_13h53.25.030,Rewa's Exp,2023.1.2,59.986419074716224,
,,,,,1,0,1,0,,,,,,,,,,,,,,,,,,,,,,,,,,,,,,244.102935,244.102935,244.102935,space,2.4354604000001245,,,Tokka,2023-07-20_13h53.25.030,Rewa's Exp,2023.1.2,59.986419074716224,
Countdown_1.5s.mp4,red,green,right,Countdown_1.5s.jpg,2,0,2,0,0,0,0,2,,,,,,,,,,,,243.07389570000004,243.91848650000003,0.8445907999999918,right,1,0.8207718000001023,13,,,,,,,,,,,,,,,Tokka,2023-07-20_13h53.25.030,Rewa's Exp,2023.1.2,59.986419074716224,
Countdown_1.5s.mp4,green,red,left,Countdown_1.5s.jpg,2,0,2,0,0,1,1,3,,,,,,,,,,,,247.82770510000006,248.46825110000003,0.6405459999999721,left,1,0.6105527000000848,14,,,,,,,,,,,,,,,Tokka,2023-07-20_13h53.25.030,Rewa's Exp,2023.1.2,59.986419074716224,
Countdown_2s.mp4,red,green,right,Countdown_2s.jpg,2,0,2,0,0,2,2,1,,,,,,,,,,,,252.378539,253.55149360000001,1.1729546000000255,left,0,1.1558678000001237,12,,,,,,,,,,,,,,,Tokka,2023-07-20_13h53.25.030,Rewa's Exp,2023.1.2,59.986419074716224,
Countdown_2.5s.mp4,green,red,left,Countdown_2.5s.jpg,2,0,2,0,0,3,3,4,,,,,,,,,,,,257.48032530000006,258.63488250000006,1.1545571999999993,left,1,1.1354737000000341,13,,,,,,,,,,,,,,,Tokka,2023-07-20_13h53.25.030,Rewa's Exp,2023.1.2,59.986419074716224,
Countdown_2s.mp4,green,red,left,Countdown_2s.jpg,2,0,2,0,0,4,4,5,,,,,,,,,,,,262.55220920000005,263.35182260000005,0.7996133999999984,left,1,0.7740290000000414,14,,,,,,,,,,,,,,,Tokka,2023-07-20_13h53.25.030,Rewa's Exp,2023.1.2,59.986419074716224,
Countdown_2.5s.mp4,red,green,right,Countdown_2.5s.jpg,2,0,2,0,0,5,5,0,,,,,,,,,,,,267.2780333,267.90170259999996,0.6236692999999605,right,1,0.5923023999999941,15,,,,,,,,,,,,,,,Tokka,2023-07-20_13h53.25.030,Rewa's Exp,2023.1.2,59.986419074716224,
Countdown_1.5s.mp4,green,red,left,Countdown_1.5s.jpg,2,0,2,0,,,,,0,0,0,3,,,,,,,,271.83243550000003,272.63516870000007,0.8027332000000342,,,,16,278.13979889999996,left,1,0.782705700000065,,,,,,,,,,,Tokka,2023-07-20_13h53.25.030,Rewa's Exp,2023.1.2,59.986419074716224,
Countdown_2.5s.mp4,red,green,right,Countdown_2.5s.jpg,2,0,2,0,,,,,0,1,1,0,,,,,,,,276.5688929,277.3850611,0.8161681999999928,,,,17,282.87621979999994,right,1,0.7893606000000091,,,,,,,,,,,Tokka,2023-07-20_13h53.25.030,Rewa's Exp,2023.1.2,59.986419074716224,
Countdown_2s.mp4,green,red,left,Countdown_2s.jpg,2,0,2,0,,,,,0,2,2,5,,,,,,,,281.2819347,282.6354502,1.3535154999999577,,,,18,287.5892712,left,1,1.3244739000000436,,,,,,,,,,,Tokka,2023-07-20_13h53.25.030,Rewa's Exp,2023.1.2,59.986419074716224,
Countdown_2.5s.mp4,green,red,left,Countdown_2.5s.jpg,2,0,2,0,,,,,0,3,3,4,,,,,,,,286.59549039999996,287.48497349999997,0.8894831000000067,,,,19,292.90282790000003,left,1,0.8585715000000391,,,,,,,,,,,Tokka,2023-07-20_13h53.25.030,Rewa's Exp,2023.1.2,59.986419074716224,
Countdown_1.5s.mp4,red,green,right,Countdown_1.5s.jpg,2,0,2,0,,,,,0,4,4,2,,,,,,,,291.43355790000004,291.9684371,0.5348791999999776,,,,20,297.74087299999997,right,1,0.5081312000000935,,,,,,,,,,,Tokka,2023-07-20_13h53.25.030,Rewa's Exp,2023.1.2,59.986419074716224,
Countdown_2s.mp4,red,green,right,Countdown_2s.jpg,2,0,2,0,,,,,0,5,5,1,,,,,,,,295.84547630000003,296.5192301,0.6737537999999859,,,,21,302.1528611,right,1,0.6410084999999981,,,,,,,,,,,Tokka,2023-07-20_13h53.25.030,Rewa's Exp,2023.1.2,59.986419074716224,
Countdown_1.5s.mp4,red,green,right,Countdown_1.5s.jpg,2,0,2,0,,,,,,,,,0,0,0,2,,,,300.4687902,301.30272329999997,0.8339330999999675,,,,19,,,,,left,0,0.8096156000000292,,,,,,,,Tokka,2023-07-20_13h53.25.030,Rewa's Exp,2023.1.2,59.986419074716224,
Countdown_1.5s.mp4,green,red,left,Countdown_1.5s.jpg,2,0,2,0,,,,,,,,,0,1,1,3,,,,305.2948799,306.2017818,0.9069018999999798,,,,17,,,,,right,0,0.8872160000000804,,,,,,,,Tokka,2023-07-20_13h53.25.030,Rewa's Exp,2023.1.2,59.986419074716224,
Countdown_2s.mp4,green,red,left,Countdown_2s.jpg,2,0,2,0,,,,,,,,,0,2,2,5,,,,310.1544634,311.00185860000005,0.8473952000000509,,,,18,,,,,left,1,0.8277837000000545,,,,,,,,Tokka,2023-07-20_13h53.25.030,Rewa's Exp,2023.1.2,59.986419074716224,
Countdown_2.5s.mp4,green,red,left,Countdown_2.5s.jpg,2,0,2,0,,,,,,,,,0,3,3,4,,,,314.91406120000005,315.90195050000005,0.9878893000000062,,,,19,,,,,left,1,0.9554599000000508,,,,,,,,Tokka,2023-07-20_13h53.25.030,Rewa's Exp,2023.1.2,59.986419074716224,
Countdown_2s.mp4,red,green,right,Countdown_2s.jpg,2,0,2,0,,,,,,,,,0,4,4,1,,,,319.7966793,320.8349249,1.038245599999982,,,,20,,,,,right,1,1.0092131999999765,,,,,,,,Tokka,2023-07-20_13h53.25.030,Rewa's Exp,2023.1.2,59.986419074716224,
Countdown_2.5s.mp4,red,green,right,Countdown_2.5s.jpg,2,0,2,0,,,,,,,,,0,5,5,0,,,,324.7417195,325.9183536,1.1766341000000011,,,,18,,,,,left,0,1.1519311000000698,,,,,,,,Tokka,2023-07-20_13h53.25.030,Rewa's Exp,2023.1.2,59.986419074716224,
,,,,,2,0,2,0,,,,,,,,,,,,,,,,,,,,,,,,,,,,,,333.36578309999993,333.36578309999993,333.36578309999993,space,2.035794800000076,,,Tokka,2023-07-20_13h53.25.030,Rewa's Exp,2023.1.2,59.986419074716224,
Countdown_2.5s.mp4,red,green,right,Countdown_2.5s.jpg,3,0,3,0,0,0,0,0,,,,,,,,,,,,331.9093178,332.71841190000004,0.8090941000000385,right,1,0.7840643000000682,19,,,,,,,,,,,,,,,Tokka,2023-07-20_13h53.25.030,Rewa's Exp,2023.1.2,59.986419074716224,
Countdown_2s.mp4,green,red,left,Countdown_2s.jpg,3,0,3,0,0,1,1,5,,,,,,,,,,,,336.6809272,337.50190649999996,0.8209792999999763,left,1,0.7885124000000587,20,,,,,,,,,,,,,,,Tokka,2023-07-20_13h53.25.030,Rewa's Exp,2023.1.2,59.986419074716224,
Countdown_1.5s.mp4,green,red,left,Countdown_1.5s.jpg,3,0,3,0,0,2,2,3,,,,,,,,,,,,341.39988410000007,342.4359993,1.0361151999999265,right,0,1.014389000000051,18,,,,,,,,,,,,,,,Tokka,2023-07-20_13h53.25.030,Rewa's Exp,2023.1.2,59.986419074716224,
Countdown_2.5s.mp4,green,red,left,Countdown_2.5s.jpg,3,0,3,0,0,3,3,4,,,,,,,,,,,,346.35619720000005,347.30167250000005,0.9454752999999982,left,1,0.9223300000001018,19,,,,,,,,,,,,,,,Tokka,2023-07-20_13h53.25.030,Rewa's Exp,2023.1.2,59.986419074716224,
Countdown_1.5s.mp4,red,green,right,Countdown_1.5s.jpg,3,0,3,0,0,4,4,2,,,,,,,,,,,,351.18610630000006,352.4681804,1.2820740999999316,left,0,1.260046500000044,17,,,,,,,,,,,,,,,Tokka,2023-07-20_13h53.25.030,Rewa's Exp,2023.1.2,59.986419074716224,
Countdown_2s.mp4,red,green,right,Countdown_2s.jpg,3,0,3,0,0,5,5,1,,,,,,,,,,,,356.3715993,357.10186200000004,0.7302627000000257,right,1,0.7069516000001386,18,,,,,,,,,,,,,,,Tokka,2023-07-20_13h53.25.030,Rewa's Exp,2023.1.2,59.986419074716224,
Countdown_1.5s.mp4,red,green,right,Countdown_1.5s.jpg,3,0,3,0,,,,,0,0,0,2,,,,,,,,361.0417382,362.1018072,1.0600689999999986,,,,19,367.3490567,right,1,1.02778770000009,,,,,,,,,,,Tokka,2023-07-20_13h53.25.030,Rewa's Exp,2023.1.2,59.986419074716224,
Countdown_2.5s.mp4,green,red,left,Countdown_2.5s.jpg,3,0,3,0,,,,,0,1,1,4,,,,,,,,365.9874961,367.01928300000003,1.0317869000000428,,,,20,372.2949023,left,1,1.0028943000000936,,,,,,,,,,,Tokka,2023-07-20_13h53.25.030,Rewa's Exp,2023.1.2,59.986419074716224,
Countdown_2s.mp4,red,green,right,Countdown_2s.jpg,3,0,3,0,,,,,0,2,2,1,,,,,,,,371.00148530000007,371.78513590000006,0.7836505999999872,,,,21,377.3088205,right,1,0.7559598000000278,,,,,,,,,,,Tokka,2023-07-20_13h53.25.030,Rewa's Exp,2023.1.2,59.986419074716224,
Countdown_2.5s.mp4,red,green,right,Countdown_2.5s.jpg,3,0,3,0,,,,,0,3,3,0,,,,,,,,375.67992970000006,376.41911440000007,0.7391847000000098,,,,22,381.9871475,right,1,0.7183247000000392,,,,,,,,,,,Tokka,2023-07-20_13h53.25.030,Rewa's Exp,2023.1.2,59.986419074716224,
Countdown_2s.mp4,green,red,left,Countdown_2s.jpg,3,0,3,0,,,,,0,4,4,5,,,,,,,,380.32174349999997,381.368453,1.04670950000002,,,,23,386.62910439999996,left,1,1.0287501999999904,,,,,,,,,,,Tokka,2023-07-20_13h53.25.030,Rewa's Exp,2023.1.2,59.986419074716224,
Countdown_1.5s.mp4,green,red,left,Countdown_1.5s.jpg,3,0,3,0,,,,,0,5,5,3,,,,,,,,385.2787031,386.30182340000005,1.0231203000000733,,,,24,391.585998,left,1,0.9998578000000862,,,,,,,,,,,Tokka,2023-07-20_13h53.25.030,Rewa's Exp,2023.1.2,59.986419074716224,
Countdown_2s.mp4,red,green,right,Countdown_2s.jpg,3,0,3,0,,,,,,,,,0,0,0,1,,,,390.2270186,391.26839120000005,1.0413726000000452,,,,22,,,,,left,0,1.0110653000000411,,,,,,,,Tokka,2023-07-20_13h53.25.030,Rewa's Exp,2023.1.2,59.986419074716224,
Countdown_2.5s.mp4,green,red,left,Countdown_2.5s.jpg,3,0,3,0,,,,,,,,,0,1,1,4,,,,395.18935289999996,396.0191028,0.8297499000000244,,,,23,,,,,left,1,0.8084319000000733,,,,,,,,Tokka,2023-07-20_13h53.25.030,Rewa's Exp,2023.1.2,59.986419074716224,
Countdown_1.5s.mp4,red,green,right,Countdown_1.5s.jpg,3,0,3,0,,,,,,,,,0,2,2,2,,,,399.9480113,400.78601570000006,0.8380044000000453,,,,21,,,,,left,0,0.819207399999982,,,,,,,,Tokka,2023-07-20_13h53.25.030,Rewa's Exp,2023.1.2,59.986419074716224,
Countdown_2.5s.mp4,red,green,right,Countdown_2.5s.jpg,3,0,3,0,,,,,,,,,0,3,3,0,,,,404.7179276,405.98520160000004,1.267274000000043,,,,19,,,,,left,0,1.248282700000118,,,,,,,,Tokka,2023-07-20_13h53.25.030,Rewa's Exp,2023.1.2,59.986419074716224,
Countdown_1.5s.mp4,green,red,left,Countdown_1.5s.jpg,3,0,3,0,,,,,,,,,0,4,4,3,,,,409.91755700000004,410.75246710000005,0.8349101000000019,,,,17,,,,,right,0,0.816828600000008,,,,,,,,Tokka,2023-07-20_13h53.25.030,Rewa's Exp,2023.1.2,59.986419074716224,
Countdown_2s.mp4,green,red,left,Countdown_2s.jpg,3,0,3,0,,,,,,,,,0,5,5,5,,,,414.72211740000006,415.5351976,0.8130801999999449,,,,18,,,,,left,1,0.7964133000000402,,,,,,,,Tokka,2023-07-20_13h53.25.030,Rewa's Exp,2023.1.2,59.986419074716224,
,,,,,3,0,3,0,,,,,,,,,,,,,,,,,,,,,,,,,,,,,,422.97032449999995,422.97032449999995,422.97032449999995,space,9.08039210000004,,,Tokka,2023-07-20_13h53.25.030,Rewa's Exp,2023.1.2,59.986419074716224,
Countdown_1.5s.mp4,red,green,right,Countdown_1.5s.jpg,4,0,4,0,0,0,0,2,,,,,,,,,,,,428.5645453,429.36872740000007,0.8041821000000482,right,1,0.7770971000001055,19,,,,,,,,,,,,,,,Tokka,2023-07-20_13h53.25.030,Rewa's Exp,2023.1.2,59.986419074716224,
Countdown_1.5s.mp4,green,red,left,Countdown_1.5s.jpg,4,0,4,0,0,1,1,3,,,,,,,,,,,,433.29037050000005,434.10198240000005,0.8116119000000026,left,1,0.7951011000001245,20,,,,,,,,,,,,,,,Tokka,2023-07-20_13h53.25.030,Rewa's Exp,2023.1.2,59.986419074716224,
Countdown_2s.mp4,green,red,left,Countdown_2s.jpg,4,0,4,0,0,2,2,5,,,,,,,,,,,,438.0739342,438.85206750000003,0.7781333000000359,left,1,0.7569034000000556,21,,,,,,,,,,,,,,,Tokka,2023-07-20_13h53.25.030,Rewa's Exp,2023.1.2,59.986419074716224,
Countdown_2.5s.mp4,red,green,right,Countdown_2.5s.jpg,4,0,4,0,0,3,3,0,,,,,,,,,,,,442.79173800000007,443.9185975,1.1268594999999095,right,1,1.094624000000067,22,,,,,,,,,,,,,,,Tokka,2023-07-20_13h53.25.030,Rewa's Exp,2023.1.2,59.986419074716224,
Countdown_2.5s.mp4,green,red,left,Countdown_2.5s.jpg,4,0,4,0,0,4,4,4,,,,,,,,,,,,447.83331660000005,448.70209860000006,0.8687820000000102,left,1,0.8363659000000325,23,,,,,,,,,,,,,,,Tokka,2023-07-20_13h53.25.030,Rewa's Exp,2023.1.2,59.986419074716224,
Countdown_2s.mp4,red,green,right,Countdown_2s.jpg,4,0,4,0,0,5,5,1,,,,,,,,,,,,452.61837340000005,453.5021126,0.8837391999999227,right,1,0.8513940000000275,24,,,,,,,,,,,,,,,Tokka,2023-07-20_13h53.25.030,Rewa's Exp,2023.1.2,59.986419074716224,
Countdown_1.5s.mp4,red,green,right,Countdown_1.5s.jpg,4,0,4,0,,,,,0,0,0,2,,,,,,,,457.42710430000005,458.40203160000004,0.9749272999999903,,,,25,463.7343779,right,1,0.947115500000109,,,,,,,,,,,Tokka,2023-07-20_13h53.25.030,Rewa's Exp,2023.1.2,59.986419074716224,
Countdown_2s.mp4,green,red,left,Countdown_2s.jpg,4,0,4,0,,,,,0,1,1,5,,,,,,,,462.32317230000007,463.5857871,1.2626147999999375,,,,26,468.6300944999999,left,1,1.243849100000034,,,,,,,,,,,Tokka,2023-07-20_13h53.25.030,Rewa's Exp,2023.1.2,59.986419074716224,
Countdown_1.5s.mp4,green,red,left,Countdown_1.5s.jpg,4,0,4,0,,,,,0,2,2,3,,,,,,,,467.5203035,468.4356754,0.9153718999999683,,,,27,473.82765859999995,left,1,0.8859243000000561,,,,,,,,,,,Tokka,2023-07-20_13h53.25.030,Rewa's Exp,2023.1.2,59.986419074716224,
Countdown_2.5s.mp4,red,green,right,Countdown_2.5s.jpg,4,0,4,0,,,,,0,3,3,0,,,,,,,,472.41156960000006,473.2856995,0.8741298999999572,,,,28,478.7189147,right,1,0.8424603000000843,,,,,,,,,,,Tokka,2023-07-20_13h53.25.030,Rewa's Exp,2023.1.2,59.986419074716224,
Countdown_2s.mp4,red,green,right,Countdown_2s.jpg,4,0,4,0,,,,,0,4,4,1,,,,,,,,477.26044670000005,478.03551369999997,0.7750669999999218,,,,29,483.5673554,right,1,0.7546976000000996,,,,,,,,,,,Tokka,2023-07-20_13h53.25.030,Rewa's Exp,2023.1.2,59.986419074716224,
Countdown_2.5s.mp4,green,red,left,Countdown_2.5s.jpg,4,0,4,0,,,,,0,5,5,4,,,,,,,,481.9452247,482.86873110000005,0.9235064000000648,,,,30,488.25258039999994,left,1,0.9009026999999605,,,,,,,,,,,Tokka,2023-07-20_13h53.25.030,Rewa's Exp,2023.1.2,59.986419074716224,
Countdown_2s.mp4,red,green,right,Countdown_2s.jpg,4,0,4,0,,,,,,,,,0,0,0,1,,,,486.7949144,487.5688684,0.7739540000000034,,,,31,,,,,right,1,0.7465645000000904,,,,,,,,Tokka,2023-07-20_13h53.25.030,Rewa's Exp,2023.1.2,59.986419074716224,
Countdown_2s.mp4,green,red,left,Countdown_2s.jpg,4,0,4,0,,,,,,,,,0,1,1,5,,,,491.51747370000004,492.51874260000005,1.0012689000000137,,,,32,,,,,left,1,0.9686062000000675,,,,,,,,Tokka,2023-07-20_13h53.25.030,Rewa's Exp,2023.1.2,59.986419074716224,
Countdown_2.5s.mp4,green,red,left,Countdown_2.5s.jpg,4,0,4,0,,,,,,,,,0,2,2,4,,,,496.43247030000003,497.85221359999997,1.4197432999999364,,,,33,,,,,left,1,1.3890542000000323,,,,,,,,Tokka,2023-07-20_13h53.25.030,Rewa's Exp,2023.1.2,59.986419074716224,
Countdown_1.5s.mp4,green,red,left,Countdown_1.5s.jpg,4,0,4,0,,,,,,,,,0,3,3,3,,,,501.75084250000003,502.8354674,1.0846248999999943,,,,34,,,,,left,1,1.0640910000000758,,,,,,,,Tokka,2023-07-20_13h53.25.030,Rewa's Exp,2023.1.2,59.986419074716224,
Countdown_1.5s.mp4,red,green,right,Countdown_1.5s.jpg,4,0,4,0,,,,,,,,,0,4,4,2,,,,506.75532000000004,507.9687042,1.2133841999999504,,,,32,,,,,left,0,1.18680310000002,,,,,,,,Tokka,2023-07-20_13h53.25.030,Rewa's Exp,2023.1.2,59.986419074716224,
Countdown_2.5s.mp4,red,green,right,Countdown_2.5s.jpg,4,0,4,0,,,,,,,,,0,5,5,0,,,,511.91280550000005,512.8188924000001,0.906086900000048,,,,30,,,,,left,0,0.8771213999999645,,,,,,,,Tokka,2023-07-20_13h53.25.030,Rewa's Exp,2023.1.2,59.986419074716224,
,,,,,4,0,4,0,,,,,,,,,,,,,,,,,,,,,,,,,,,,,,520.2370616,520.2370616,520.2370616,space,3.067975199999978,,,Tokka,2023-07-20_13h53.25.030,Rewa's Exp,2023.1.2,59.986419074716224,
Countdown_2.5s.mp4,green,red,left,Countdown_2.5s.jpg,5,0,5,0,0,0,0,4,,,,,,,,,,,,519.8202388,520.5854853000001,0.765246500000103,left,1,0.7375021000000288,31,,,,,,,,,,,,,,,Tokka,2023-07-20_13h53.25.030,Rewa's Exp,2023.1.2,59.986419074716224,
Countdown_1.5s.mp4,red,green,right,Countdown_1.5s.jpg,5,0,5,0,0,1,1,2,,,,,,,,,,,,524.5053654000001,525.2688574000001,0.763492000000042,right,1,0.7412325000001374,32,,,,,,,,,,,,,,,Tokka,2023-07-20_13h53.25.030,Rewa's Exp,2023.1.2,59.986419074716224,
Countdown_2.5s.mp4,red,green,right,Countdown_2.5s.jpg,5,0,5,0,0,2,2,0,,,,,,,,,,,,529.1839529000001,530.2188785999999,1.0349256999998033,left,0,1.0144550000001118,30,,,,,,,,,,,,,,,Tokka,2023-07-20_13h53.25.030,Rewa's Exp,2023.1.2,59.986419074716224,
Countdown_2s.mp4,green,red,left,Countdown_2s.jpg,5,0,5,0,0,3,3,5,,,,,,,,,,,,534.1885877,535.1190263000001,0.9304386000001159,left,1,0.9136077000000569,31,,,,,,,,,,,,,,,Tokka,2023-07-20_13h53.25.030,Rewa's Exp,2023.1.2,59.986419074716224,
Countdown_2s.mp4,red,green,right,Countdown_2s.jpg,5,0,5,0,0,4,4,1,,,,,,,,,,,,539.065687,540.0358865999999,0.9701995999998871,right,1,0.9398877000000994,32,,,,,,,,,,,,,,,Tokka,2023-07-20_13h53.25.030,Rewa's Exp,2023.1.2,59.986419074716224,
Countdown_1.5s.mp4,green,red,left,Countdown_1.5s.jpg,5,0,5,0,0,5,5,3,,,,,,,,,,,,543.9843181000001,544.6522454999999,0.6679273999998259,left,1,0.6457903000000442,33,,,,,,,,,,,,,,,Tokka,2023-07-20_13h53.25.030,Rewa's Exp,2023.1.2,59.986419074716224,
Countdown_2.5s.mp4,green,red,left,Countdown_2.5s.jpg,5,0,5,0,,,,,0,0,0,4,,,,,,,,548.5579955999999,549.4855812000001,0.9275856000001568,,,,34,554.8653661,left,1,0.8963242000000946,,,,,,,,,,,Tokka,2023-07-20_13h53.25.030,Rewa's Exp,2023.1.2,59.986419074716224,
Countdown_2s.mp4,green,red,left,Countdown_2s.jpg,5,0,5,0,,,,,0,1,1,5,,,,,,,,553.4107457,554.2523722999999,0.8416265999999268,,,,35,559.7180113,left,1,0.8198474000000715,,,,,,,,,,,Tokka,2023-07-20_13h53.25.030,Rewa's Exp,2023.1.2,59.986419074716224,
Countdown_1.5s.mp4,red,green,right,Countdown_1.5s.jpg,5,0,5,0,,,,,0,2,2,2,,,,,,,,558.1689343,558.8523032,0.6833689000000049,,,,36,564.4763197,right,1,0.6528702000000521,,,,,,,,,,,Tokka,2023-07-20_13h53.25.030,Rewa's Exp,2023.1.2,59.986419074716224,
Countdown_2.5s.mp4,red,green,right,Countdown_2.5s.jpg,5,0,5,0,,,,,0,3,3,0,,,,,,,,562.7504749,563.5523456999999,0.8018707999999606,,,,37,569.0577589,right,1,0.7687045000000126,,,,,,,,,,,Tokka,2023-07-20_13h53.25.030,Rewa's Exp,2023.1.2,59.986419074716224,
Countdown_2s.mp4,red,green,right,Countdown_2s.jpg,5,0,5,0,,,,,0,4,4,1,,,,,,,,567.4608679,568.5187678,1.0578998999999385,,,,35,573.7682245,left,0,1.0260997999999972,,,,,,,,,,,Tokka,2023-07-20_13h53.25.030,Rewa's Exp,2023.1.2,59.986419074716224,
Countdown_1.5s.mp4,green,red,left,Countdown_1.5s.jpg,5,0,5,0,,,,,0,5,5,3,,,,,,,,572.4203801000001,573.1855329,0.7651527999998962,,,,36,578.7276851,left,1,0.7466775000000325,,,,,,,,,,,Tokka,2023-07-20_13h53.25.030,Rewa's Exp,2023.1.2,59.986419074716224,
Countdown_1.5s.mp4,green,red,left,Countdown_1.5s.jpg,5,0,5,0,,,,,,,,,0,0,0,3,,,,577.1107115,577.9860001,0.8752885999999762,,,,37,,,,,left,1,0.8561129000000847,,,,,,,,Tokka,2023-07-20_13h53.25.030,Rewa's Exp,2023.1.2,59.986419074716224,
Countdown_2s.mp4,green,red,left,Countdown_2s.jpg,5,0,5,0,,,,,,,,,0,1,1,5,,,,581.9403577,582.7022995,0.7619417999999314,,,,35,,,,,right,0,0.7451929000001201,,,,,,,,Tokka,2023-07-20_13h53.25.030,Rewa's Exp,2023.1.2,59.986419074716224,
Countdown_2s.mp4,red,green,right,Countdown_2s.jpg,5,0,5,0,,,,,,,,,0,2,2,1,,,,586.6192909000001,587.268967,0.6496760999998514,,,,36,,,,,right,1,0.627742200000057,,,,,,,,Tokka,2023-07-20_13h53.25.030,Rewa's Exp,2023.1.2,59.986419074716224,
Countdown_2.5s.mp4,green,red,left,Countdown_2.5s.jpg,5,0,5,0,,,,,,,,,0,3,3,4,,,,591.2207381000001,591.9528545000001,0.7321163999999953,,,,37,,,,,left,1,0.7061982999999827,,,,,,,,Tokka,2023-07-20_13h53.25.030,Rewa's Exp,2023.1.2,59.986419074716224,
Countdown_2.5s.mp4,red,green,right,Countdown_2.5s.jpg,5,0,5,0,,,,,,,,,0,4,4,0,,,,595.9050849,596.6022763999999,0.6971914999999171,,,,38,,,,,right,1,0.6687811000000465,,,,,,,,Tokka,2023-07-20_13h53.25.030,Rewa's Exp,2023.1.2,59.986419074716224,
Countdown_1.5s.mp4,red,green,right,Countdown_1.5s.jpg,5,0,5,0,,,,,,,,,0,5,5,2,,,,600.5100950000001,601.2691144,0.7590193999999428,,,,39,,,,,right,1,0.7363076000001456,,,,,,,,Tokka,2023-07-20_13h53.25.030,Rewa's Exp,2023.1.2,59.986419074716224,
,,,,,5,0,5,0,,,,,,,,,,,,,,,,,,,,,,,,,,,,,,608.7205971999999,608.7205971999999,608.7205971999999,space,2.0734260000000404,,,Tokka,2023-07-20_13h53.25.030,Rewa's Exp,2023.1.2,59.986419074716224,
Countdown_1.5s.mp4,red,green,right,Countdown_1.5s.jpg,6,0,6,0,0,0,0,2,,,,,,,,,,,,607.3118976999999,608.5188814999999,1.206983799999989,left,0,1.1750180000000228,37,,,,,,,,,,,,,,,Tokka,2023-07-20_13h53.25.030,Rewa's Exp,2023.1.2,59.986419074716224,
Countdown_2s.mp4,red,green,right,Countdown_2s.jpg,6,0,6,0,0,1,1,1,,,,,,,,,,,,612.4713987,613.3358733,0.8644745999999941,left,0,0.8388969000001225,35,,,,,,,,,,,,,,,Tokka,2023-07-20_13h53.25.030,Rewa's Exp,2023.1.2,59.986419074716224,
Countdown_2s.mp4,green,red,left,Countdown_2s.jpg,6,0,6,0,0,2,2,5,,,,,,,,,,,,617.2264845,617.9524739000001,0.7259894000001168,left,1,0.708026400000108,36,,,,,,,,,,,,,,,Tokka,2023-07-20_13h53.25.030,Rewa's Exp,2023.1.2,59.986419074716224,
Countdown_2.5s.mp4,red,green,right,Countdown_2.5s.jpg,6,0,6,0,0,3,3,0,,,,,,,,,,,,621.8519371,622.6860703,0.8341331999999966,right,1,0.8021401000000878,37,,,,,,,,,,,,,,,Tokka,2023-07-20_13h53.25.030,Rewa's Exp,2023.1.2,59.986419074716224,
Countdown_2.5s.mp4,green,red,left,Countdown_2.5s.jpg,6,0,6,0,0,4,4,4,,,,,,,,,,,,626.6472584,627.3198643000001,0.6726059000000078,left,1,0.648027500000012,38,,,,,,,,,,,,,,,Tokka,2023-07-20_13h53.25.030,Rewa's Exp,2023.1.2,59.986419074716224,
Countdown_1.5s.mp4,green,red,left,Countdown_1.5s.jpg,6,0,6,0,0,5,5,3,,,,,,,,,,,,631.2408992999999,631.8190072,0.5781079000000773,left,1,0.5486299000000372,39,,,,,,,,,,,,,,,Tokka,2023-07-20_13h53.25.030,Rewa's Exp,2023.1.2,59.986419074716224,
Countdown_2.5s.mp4,green,red,left,Countdown_2.5s.jpg,6,0,6,0,,,,,0,0,0,4,,,,,,,,635.7356545,636.4023563999999,0.6667018999999073,,,,40,642.0430203999999,left,1,0.6476663000000826,,,,,,,,,,,Tokka,2023-07-20_13h53.25.030,Rewa's Exp,2023.1.2,59.986419074716224,
Countdown_2s.mp4,green,red,left,Countdown_2s.jpg,6,0,6,0,,,,,0,1,1,5,,,,,,,,640.3257811999999,641.0857911999999,0.7600099999999657,,,,41,646.6331319,left,1,0.7283482000001413,,,,,,,,,,,Tokka,2023-07-20_13h53.25.030,Rewa's Exp,2023.1.2,59.986419074716224,
Countdown_1.5s.mp4,green,red,left,Countdown_1.5s.jpg,6,0,6,0,,,,,0,2,2,3,,,,,,,,644.9968191,645.7691752000001,0.7723561000000245,,,,42,651.3041817,left,1,0.7450681000000259,,,,,,,,,,,Tokka,2023-07-20_13h53.25.030,Rewa's Exp,2023.1.2,59.986419074716224,
Countdown_2s.mp4,red,green,right,Countdown_2s.jpg,6,0,6,0,,,,,0,3,3,1,,,,,,,,649.6771968,650.3859772000001,0.7087804000000233,,,,43,655.9845004,right,1,0.6813327000000982,,,,,,,,,,,Tokka,2023-07-20_13h53.25.030,Rewa's Exp,2023.1.2,59.986419074716224,
Countdown_1.5s.mp4,red,green,right,Countdown_1.5s.jpg,6,0,6,0,,,,,0,4,4,2,,,,,,,,654.3108946,655.1858726,0.8749780000000555,,,,41,660.6182117,left,0,0.8564994000000752,,,,,,,,,,,Tokka,2023-07-20_13h53.25.030,Rewa's Exp,2023.1.2,59.986419074716224,
Countdown_2.5s.mp4,red,green,right,Countdown_2.5s.jpg,6,0,6,0,,,,,0,5,5,0,,,,,,,,659.1589561000001,659.8191749,0.6602187999999387,,,,39,665.4662992,left,0,0.6394126000001279,,,,,,,,,,,Tokka,2023-07-20_13h53.25.030,Rewa's Exp,2023.1.2,59.986419074716224,
Countdown_1.5s.mp4,green,red,left,Countdown_1.5s.jpg,6,0,6,0,,,,,,,,,0,0,0,3,,,,663.7258179,664.3596781000001,0.6338602000000719,,,,40,,,,,left,1,0.609319100000107,,,,,,,,Tokka,2023-07-20_13h53.25.030,Rewa's Exp,2023.1.2,59.986419074716224,
Countdown_2.5s.mp4,green,red,left,Countdown_2.5s.jpg,6,0,6,0,,,,,,,,,0,1,1,4,,,,668.2771766000001,668.9024617,0.6252850999999282,,,,41,,,,,left,1,0.6005556000001206,,,,,,,,Tokka,2023-07-20_13h53.25.030,Rewa's Exp,2023.1.2,59.986419074716224,
Countdown_2s.mp4,green,red,left,Countdown_2s.jpg,6,0,6,0,,,,,,,,,0,2,2,5,,,,672.8226172,673.4857919000001,0.6631747000001269,,,,42,,,,,left,1,0.6314297000000124,,,,,,,,Tokka,2023-07-20_13h53.25.030,Rewa's Exp,2023.1.2,59.986419074716224,
Countdown_2.5s.mp4,red,green,right,Countdown_2.5s.jpg,6,0,6,0,,,,,,,,,0,3,3,0,,,,677.3813864000001,678.1858086,0.8044221999998626,,,,43,,,,,right,1,0.7776672000001099,,,,,,,,Tokka,2023-07-20_13h53.25.030,Rewa's Exp,2023.1.2,59.986419074716224,
Countdown_1.5s.mp4,red,green,right,Countdown_1.5s.jpg,6,0,6,0,,,,,,,,,0,4,4,2,,,,682.1000271,683.2526793,1.1526521999999204,,,,44,,,,,right,1,1.1219262000000754,,,,,,,,Tokka,2023-07-20_13h53.25.030,Rewa's Exp,2023.1.2,59.986419074716224,
Countdown_2s.mp4,red,green,right,Countdown_2s.jpg,6,0,6,0,,,,,,,,,0,5,5,1,,,,687.1741187,688.2357369000001,1.0616182000001118,,,,45,,,,,right,1,1.0313687999999956,,,,,,,,Tokka,2023-07-20_13h53.25.030,Rewa's Exp,2023.1.2,59.986419074716224,
,,,,,6,0,6,0,,,,,,,,,,,,,,,,,,,,,,,,,,,,,,695.6707624,695.6707624,695.6707624,space,35.8510715000001,,,Tokka,2023-07-20_13h53.25.030,Rewa's Exp,2023.1.2,59.986419074716224,
Countdown_2.5s.mp4,green,red,left,Countdown_2.5s.jpg,7,0,7,0,0,0,0,4,,,,,,,,,,,,728.0595349,728.7858444000001,0.7263095000000703,left,1,0.7084113000001935,46,,,,,,,,,,,,,,,Tokka,2023-07-20_13h53.25.030,Rewa's Exp,2023.1.2,59.986419074716224,
Countdown_1.5s.mp4,green,red,left,Countdown_1.5s.jpg,7,0,7,0,0,1,1,3,,,,,,,,,,,,732.6800816,733.2858905,0.6058089000000564,left,1,0.5830663000000413,47,,,,,,,,,,,,,,,Tokka,2023-07-20_13h53.25.030,Rewa's Exp,2023.1.2,59.986419074716224,
Countdown_2s.mp4,green,red,left,Countdown_2s.jpg,7,0,7,0,0,2,2,5,,,,,,,,,,,,737.2128707000002,737.7858407000001,0.5729699999999411,left,1,0.545050900000092,48,,,,,,,,,,,,,,,Tokka,2023-07-20_13h53.25.030,Rewa's Exp,2023.1.2,59.986419074716224,
Countdown_2s.mp4,red,green,right,Countdown_2s.jpg,7,0,7,0,0,3,3,1,,,,,,,,,,,,741.7347664000001,742.4360457,0.7012792999998965,right,1,0.6798850000001266,49,,,,,,,,,,,,,,,Tokka,2023-07-20_13h53.25.030,Rewa's Exp,2023.1.2,59.986419074716224,
Countdown_2.5s.mp4,red,green,right,Countdown_2.5s.jpg,7,0,7,0,0,4,4,0,,,,,,,,,,,,746.3496161,747.3858718000001,1.0362557000000834,right,1,1.0098619000001463,50,,,,,,,,,,,,,,,Tokka,2023-07-20_13h53.25.030,Rewa's Exp,2023.1.2,59.986419074716224,
Countdown_1.5s.mp4,red,green,right,Countdown_1.5s.jpg,7,0,7,0,0,5,5,2,,,,,,,,,,,,751.3150857,752.1029425000002,0.7878568000000996,right,1,0.7550724999999829,51,,,,,,,,,,,,,,,Tokka,2023-07-20_13h53.25.030,Rewa's Exp,2023.1.2,59.986419074716224,
Countdown_1.5s.mp4,red,green,right,Countdown_1.5s.jpg,7,0,7,0,,,,,0,0,0,2,,,,,,,,756.0265159,756.6201806000001,0.5936647000000903,,,,52,762.333859,right,1,0.563690500000007,,,,,,,,,,,Tokka,2023-07-20_13h53.25.030,Rewa's Exp,2023.1.2,59.986419074716224,
Countdown_1.5s.mp4,green,red,left,Countdown_1.5s.jpg,7,0,7,0,,,,,0,1,1,3,,,,,,,,760.5554249000002,761.4194256000001,0.8640006999999059,,,,53,766.8627763000001,left,1,0.8431262999998808,,,,,,,,,,,Tokka,2023-07-20_13h53.25.030,Rewa's Exp,2023.1.2,59.986419074716224,
Countdown_2s.mp4,green,red,left,Countdown_2s.jpg,7,0,7,0,,,,,0,2,2,5,,,,,,,,765.3216296,766.0025655000002,0.6809359000001223,,,,54,771.6289951,left,1,0.6534322000001112,,,,,,,,,,,Tokka,2023-07-20_13h53.25.030,Rewa's Exp,2023.1.2,59.986419074716224,
Countdown_2s.mp4,red,green,right,Countdown_2s.jpg,7,0,7,0,,,,,0,3,3,1,,,,,,,,769.9085311000001,770.6528496000001,0.744318499999963,,,,55,776.2158745,right,1,0.7217461999999841,,,,,,,,,,,Tokka,2023-07-20_13h53.25.030,Rewa's Exp,2023.1.2,59.986419074716224,
Countdown_2.5s.mp4,green,red,left,Countdown_2.5s.jpg,7,0,7,0,,,,,0,4,4,4,,,,,,,,774.5388177,775.3038464000001,0.7650287000001299,,,,56,780.8461825999999,left,1,0.7472977000001038,,,,,,,,,,,Tokka,2023-07-20_13h53.25.030,Rewa's Exp,2023.1.2,59.986419074716224,
Countdown_2.5s.mp4,red,green,right,Countdown_2.5s.jpg,7,0,7,0,,,,,0,5,5,0,,,,,,,,779.2069406,780.0866806000001,0.8797400000000835,,,,57,785.5142784999999,right,1,0.8571292000000312,,,,,,,,,,,Tokka,2023-07-20_13h53.25.030,Rewa's Exp,2023.1.2,59.986419074716224,
Countdown_2s.mp4,red,green,right,Countdown_2s.jpg,7,0,7,0,,,,,,,,,0,0,0,1,,,,784.0075891000001,784.8030746000002,0.7954855000000407,,,,58,,,,,right,1,0.7758840000002465,,,,,,,,Tokka,2023-07-20_13h53.25.030,Rewa's Exp,2023.1.2,59.986419074716224,
Countdown_1.5s.mp4,green,red,left,Countdown_1.5s.jpg,7,0,7,0,,,,,,,,,0,1,1,3,,,,788.7194984,789.4865692000001,0.7670708000000559,,,,59,,,,,left,1,0.7506142000000864,,,,,,,,Tokka,2023-07-20_13h53.25.030,Rewa's Exp,2023.1.2,59.986419074716224,
Countdown_1.5s.mp4,red,green,right,Countdown_1.5s.jpg,7,0,7,0,,,,,,,,,0,2,2,2,,,,793.4269545,794.3528081000002,0.9258536000002096,,,,57,,,,,left,0,0.8987182000001894,,,,,,,,Tokka,2023-07-20_13h53.25.030,Rewa's Exp,2023.1.2,59.986419074716224,
Countdown_2s.mp4,green,red,left,Countdown_2s.jpg,7,0,7,0,,,,,,,,,0,3,3,5,,,,798.2574158,799.0695185000002,0.8121027000001959,,,,58,,,,,left,1,0.7810039000002007,,,,,,,,Tokka,2023-07-20_13h53.25.030,Rewa's Exp,2023.1.2,59.986419074716224,
Countdown_2.5s.mp4,green,red,left,Countdown_2.5s.jpg,7,0,7,0,,,,,,,,,0,4,4,4,,,,803.0177164000002,804.1026381000001,1.0849216999999953,,,,59,,,,,left,1,1.0618986000000632,,,,,,,,Tokka,2023-07-20_13h53.25.030,Rewa's Exp,2023.1.2,59.986419074716224,
Countdown_2.5s.mp4,red,green,right,Countdown_2.5s.jpg,7,0,7,0,,,,,,,,,0,5,5,0,,,,808.0160676,809.0525675000001,1.0364999000000807,,,,57,,,,,left,0,1.013768500000083,,,,,,,,Tokka,2023-07-20_13h53.25.030,Rewa's Exp,2023.1.2,59.986419074716224,
,,,,,7,0,7,0,,,,,,,,,,,,,,,,,,,,,,,,,,,,,,816.5044523,816.5044523,816.5044523,space,1.66561420000005,,,Tokka,2023-07-20_13h53.25.030,Rewa's Exp,2023.1.2,59.986419074716224,
Countdown_2.5s.mp4,red,green,right,Countdown_2.5s.jpg,8,0,8,0,0,0,0,0,,,,,,,,,,,,814.6666819000002,815.7192754,1.0525934999998299,left,0,1.0281947000001992,55,,,,,,,,,,,,,,,Tokka,2023-07-20_13h53.25.030,Rewa's Exp,2023.1.2,59.986419074716224,
Countdown_1.5s.mp4,red,green,right,Countdown_1.5s.jpg,8,0,8,0,0,1,1,2,,,,,,,,,,,,819.6538908,820.4527065,0.7988156999999774,left,0,0.7682200000000421,53,,,,,,,,,,,,,,,Tokka,2023-07-20_13h53.25.030,Rewa's Exp,2023.1.2,59.986419074716224,
Countdown_1.5s.mp4,green,red,left,Countdown_1.5s.jpg,8,0,8,0,0,2,2,3,,,,,,,,,,,,824.3650245000001,825.0698078,0.7047832999999173,left,1,0.6808560999999145,54,,,,,,,,,,,,,,,Tokka,2023-07-20_13h53.25.030,Rewa's Exp,2023.1.2,59.986419074716224,
Countdown_2.5s.mp4,green,red,left,Countdown_2.5s.jpg,8,0,8,0,0,3,3,4,,,,,,,,,,,,829.0006430000001,829.6868747000001,0.6862317000000075,left,1,0.6698009000000411,55,,,,,,,,,,,,,,,Tokka,2023-07-20_13h53.25.030,Rewa's Exp,2023.1.2,59.986419074716224,
Countdown_2s.mp4,green,red,left,Countdown_2s.jpg,8,0,8,0,0,4,4,5,,,,,,,,,,,,833.5912617000001,834.3696447,0.7783829999998488,left,1,0.7524726000000328,56,,,,,,,,,,,,,,,Tokka,2023-07-20_13h53.25.030,Rewa's Exp,2023.1.2,59.986419074716224,
Countdown_2s.mp4,red,green,right,Countdown_2s.jpg,8,0,8,0,0,5,5,1,,,,,,,,,,,,838.2711069000002,839.0528722000001,0.7817652999999609,right,1,0.7602125000001934,57,,,,,,,,,,,,,,,Tokka,2023-07-20_13h53.25.030,Rewa's Exp,2023.1.2,59.986419074716224,
Countdown_2s.mp4,green,red,left,Countdown_2s.jpg,8,0,8,0,,,,,0,0,0,5,,,,,,,,842.9608634000001,843.6197199000001,0.6588564999999562,,,,58,849.2681251999999,left,1,0.6387784000002057,,,,,,,,,,,Tokka,2023-07-20_13h53.25.030,Rewa's Exp,2023.1.2,59.986419074716224,
Countdown_1.5s.mp4,green,red,left,Countdown_1.5s.jpg,8,0,8,0,,,,,0,1,1,3,,,,,,,,847.5136652000001,848.2696579000001,0.7559926999999789,,,,59,853.8210083999999,left,1,0.7331301000000394,,,,,,,,,,,Tokka,2023-07-20_13h53.25.030,Rewa's Exp,2023.1.2,59.986419074716224,
Countdown_2s.mp4,red,green,right,Countdown_2s.jpg,8,0,8,0,,,,,0,2,2,1,,,,,,,,852.2420691,853.2693695,1.0273004000000583,,,,60,858.5494152,right,1,1.0037181000001283,,,,,,,,,,,Tokka,2023-07-20_13h53.25.030,Rewa's Exp,2023.1.2,59.986419074716224,
Countdown_2.5s.mp4,red,green,right,Countdown_2.5s.jpg,8,0,8,0,,,,,0,3,3,0,,,,,,,,857.2020617000001,858.1535385,0.9514767999999094,,,,61,863.5093999,right,1,0.9334175000000187,,,,,,,,,,,Tokka,2023-07-20_13h53.25.030,Rewa's Exp,2023.1.2,59.986419074716224,
Countdown_1.5s.mp4,red,green,right,Countdown_1.5s.jpg,8,0,8,0,,,,,0,4,4,2,,,,,,,,862.0779879000002,862.7195956,0.641607699999895,,,,62,868.3853399000001,right,1,0.6163520999999719,,,,,,,,,,,Tokka,2023-07-20_13h53.25.030,Rewa's Exp,2023.1.2,59.986419074716224,
Countdown_2.5s.mp4,green,red,left,Countdown_2.5s.jpg,8,0,8,0,,,,,0,5,5,4,,,,,,,,866.6338068,867.519771,0.8859641999999894,,,,63,872.9411644,left,1,0.8604704999999058,,,,,,,,,,,Tokka,2023-07-20_13h53.25.030,Rewa's Exp,2023.1.2,59.986419074716224,
Countdown_2.5s.mp4,red,green,right,Countdown_2.5s.jpg,8,0,8,0,,,,,,,,,0,0,0,0,,,,871.4544797000001,872.1863821000002,0.7319024000000809,,,,64,,,,,right,1,0.7043111000001545,,,,,,,,Tokka,2023-07-20_13h53.25.030,Rewa's Exp,2023.1.2,59.986419074716224,
Countdown_2s.mp4,red,green,right,Countdown_2s.jpg,8,0,8,0,,,,,,,,,0,1,1,1,,,,876.134309,876.7366280000001,0.6023190000000795,,,,65,,,,,right,1,0.5849567000001343,,,,,,,,Tokka,2023-07-20_13h53.25.030,Rewa's Exp,2023.1.2,59.986419074716224,
Countdown_1.5s.mp4,green,red,left,Countdown_1.5s.jpg,8,0,8,0,,,,,,,,,0,2,2,3,,,,880.6769375000001,881.3694143,0.6924767999998949,,,,66,,,,,left,1,0.6741430000000719,,,,,,,,Tokka,2023-07-20_13h53.25.030,Rewa's Exp,2023.1.2,59.986419074716224,
Countdown_2s.mp4,green,red,left,Countdown_2s.jpg,8,0,8,0,,,,,,,,,0,3,3,5,,,,885.3041314,886.0871466000001,0.7830152000001362,,,,64,,,,,right,0,0.758046600000057,,,,,,,,Tokka,2023-07-20_13h53.25.030,Rewa's Exp,2023.1.2,59.986419074716224,
Countdown_2.5s.mp4,green,red,left,Countdown_2.5s.jpg,8,0,8,0,,,,,,,,,0,4,4,4,,,,889.9781285000001,890.9364810000002,0.9583525000000463,,,,65,,,,,left,1,0.9411542000001418,,,,,,,,Tokka,2023-07-20_13h53.25.030,Rewa's Exp,2023.1.2,59.986419074716224,
Countdown_1.5s.mp4,red,green,right,Countdown_1.5s.jpg,8,0,8,0,,,,,,,,,0,5,5,2,,,,894.8464136,895.6528853,0.8064716999999746,,,,66,,,,,right,1,0.7835152000001244,,,,,,,,Tokka,2023-07-20_13h53.25.030,Rewa's Exp,2023.1.2,59.986419074716224,
,,,,,8,0,8,0,,,,,,,,,,,,,,,,,,,,,,,,,,,,,,903.0893531999999,903.0893531999999,903.0893531999999,space,1.7529071000000158,,,Tokka,2023-07-20_13h53.25.030,Rewa's Exp,2023.1.2,59.986419074716224,
Countdown_2.5s.mp4,green,red,left,Countdown_2.5s.jpg,9,0,9,0,0,0,0,4,,,,,,,,,,,,901.3372999000001,902.1374441,0.800144199999977,left,1,0.7726639000001114,67,,,,,,,,,,,,,,,Tokka,2023-07-20_13h53.25.030,Rewa's Exp,2023.1.2,59.986419074716224,
Countdown_2s.mp4,green,red,left,Countdown_2s.jpg,9,0,9,0,0,1,1,5,,,,,,,,,,,,906.0498907000001,906.8361704000001,0.7862797000000228,left,1,0.7577225999999655,68,,,,,,,,,,,,,,,Tokka,2023-07-20_13h53.25.030,Rewa's Exp,2023.1.2,59.986419074716224,
Countdown_2.5s.mp4,red,green,right,Countdown_2.5s.jpg,9,0,9,0,0,2,2,0,,,,,,,,,,,,910.7721847,911.5196506,0.7474658999999519,right,1,0.722357800000168,69,,,,,,,,,,,,,,,Tokka,2023-07-20_13h53.25.030,Rewa's Exp,2023.1.2,59.986419074716224,
Countdown_1.5s.mp4,red,green,right,Countdown_1.5s.jpg,9,0,9,0,0,3,3,2,,,,,,,,,,,,915.4409339000001,916.1862991,0.7453651999999238,left,0,0.7264332999999397,67,,,,,,,,,,,,,,,Tokka,2023-07-20_13h53.25.030,Rewa's Exp,2023.1.2,59.986419074716224,
Countdown_2s.mp4,red,green,right,Countdown_2s.jpg,9,0,9,0,0,4,4,1,,,,,,,,,,,,920.1004639,921.0534850000001,0.9530211000001145,left,0,0.921292100000187,65,,,,,,,,,,,,,,,Tokka,2023-07-20_13h53.25.030,Rewa's Exp,2023.1.2,59.986419074716224,
Countdown_1.5s.mp4,green,red,left,Countdown_1.5s.jpg,9,0,9,0,0,5,5,3,,,,,,,,,,,,925.0147239,925.7032368,0.6885128999999779,left,1,0.6713333000001285,66,,,,,,,,,,,,,,,Tokka,2023-07-20_13h53.25.030,Rewa's Exp,2023.1.2,59.986419074716224,
Countdown_1.5s.mp4,green,red,left,Countdown_1.5s.jpg,9,0,9,0,,,,,0,0,0,3,,,,,,,,929.6085265000002,930.5863537,0.9778271999998651,,,,67,935.9158649,left,1,0.9494433000000981,,,,,,,,,,,Tokka,2023-07-20_13h53.25.030,Rewa's Exp,2023.1.2,59.986419074716224,
Countdown_2.5s.mp4,red,green,right,Countdown_2.5s.jpg,9,0,9,0,,,,,0,1,1,0,,,,,,,,934.4829801000001,935.1867254000001,0.7037453000000369,,,,68,940.7903501,right,1,0.6846629000000348,,,,,,,,,,,Tokka,2023-07-20_13h53.25.030,Rewa's Exp,2023.1.2,59.986419074716224,
Countdown_2.5s.mp4,green,red,left,Countdown_2.5s.jpg,9,0,9,0,,,,,0,2,2,4,,,,,,,,939.0830928,939.9029464,0.8198535999999876,,,,69,945.3904492999999,left,1,0.7879960999999867,,,,,,,,,,,Tokka,2023-07-20_13h53.25.030,Rewa's Exp,2023.1.2,59.986419074716224,
Countdown_2s.mp4,green,red,left,Countdown_2s.jpg,9,0,9,0,,,,,0,3,3,5,,,,,,,,943.8042425000001,944.5862531,0.7820105999999214,,,,70,950.1116011,left,1,0.762190300000043,,,,,,,,,,,Tokka,2023-07-20_13h53.25.030,Rewa's Exp,2023.1.2,59.986419074716224,
Countdown_1.5s.mp4,red,green,right,Countdown_1.5s.jpg,9,0,9,0,,,,,0,4,4,2,,,,,,,,948.4791125000002,949.1865310000001,0.7074184999999034,,,,71,954.7864688999999,right,1,0.6869196000001239,,,,,,,,,,,Tokka,2023-07-20_13h53.25.030,Rewa's Exp,2023.1.2,59.986419074716224,
Countdown_2s.mp4,red,green,right,Countdown_2s.jpg,9,0,9,0,,,,,0,5,5,1,,,,,,,,953.0805577000001,953.8366388000002,0.756081100000074,,,,72,959.3879507,right,1,0.7340493000000379,,,,,,,,,,,Tokka,2023-07-20_13h53.25.030,Rewa's Exp,2023.1.2,59.986419074716224,
Countdown_2.5s.mp4,red,green,right,Countdown_2.5s.jpg,9,0,9,0,,,,,,,,,0,0,0,0,,,,957.7906945,958.7696805,0.9789860000000772,,,,73,,,,,right,1,0.9604709999999841,,,,,,,,Tokka,2023-07-20_13h53.25.030,Rewa's Exp,2023.1.2,59.986419074716224,
Countdown_2s.mp4,red,green,right,Countdown_2s.jpg,9,0,9,0,,,,,,,,,0,1,1,1,,,,962.6810987000001,963.4030705,0.721971799999892,,,,71,,,,,left,0,0.7013863000000811,,,,,,,,Tokka,2023-07-20_13h53.25.030,Rewa's Exp,2023.1.2,59.986419074716224,
Countdown_2.5s.mp4,green,red,left,Countdown_2.5s.jpg,9,0,9,0,,,,,,,,,0,2,2,4,,,,967.317262,968.2365142000001,0.9192522000000736,,,,72,,,,,left,1,0.8980362000000923,,,,,,,,Tokka,2023-07-20_13h53.25.030,Rewa's Exp,2023.1.2,59.986419074716224,
Countdown_1.5s.mp4,green,red,left,Countdown_1.5s.jpg,9,0,9,0,,,,,,,,,0,3,3,3,,,,972.1477590000002,973.1529866000001,1.0052275999998983,,,,73,,,,,left,1,0.9794692000001533,,,,,,,,Tokka,2023-07-20_13h53.25.030,Rewa's Exp,2023.1.2,59.986419074716224,
Countdown_1.5s.mp4,red,green,right,Countdown_1.5s.jpg,9,0,9,0,,,,,,,,,0,4,4,2,,,,977.0676759,977.9865005000001,0.9188246000001072,,,,74,,,,,right,1,0.8990327000000207,,,,,,,,Tokka,2023-07-20_13h53.25.030,Rewa's Exp,2023.1.2,59.986419074716224,
Countdown_2s.mp4,green,red,left,Countdown_2s.jpg,9,0,9,0,,,,,,,,,0,5,5,5,,,,981.9031518000002,982.653959,0.7508071999998265,,,,75,,,,,left,1,0.7288451000000578,,,,,,,,Tokka,2023-07-20_13h53.25.030,Rewa's Exp,2023.1.2,59.986419074716224,
,,,,,9,0,9,0,,,,,,,,,,,,,,,,,,,,,,,,,,,,,,990.1047342999999,990.1047342999999,990.1047342999999,space,4.466026599999964,,,Tokka,2023-07-20_13h53.25.030,Rewa's Exp,2023.1.2,59.986419074716224,
Countdown_2s.mp4,red,green,right,Countdown_2s.jpg,10,0,10,0,0,0,0,1,,,,,,,,,,,,991.0767150000001,991.8531765,0.7764614999998685,left,0,0.7458610999998427,73,,,,,,,,,,,,,,,Tokka,2023-07-20_13h53.25.030,Rewa's Exp,2023.1.2,59.986419074716224,
Countdown_2.5s.mp4,green,red,left,Countdown_2.5s.jpg,10,0,10,0,0,1,1,4,,,,,,,,,,,,995.7500608,996.4699289,0.7198680999999851,left,1,0.6967199000001756,74,,,,,,,,,,,,,,,Tokka,2023-07-20_13h53.25.030,Rewa's Exp,2023.1.2,59.986419074716224,
Countdown_2.5s.mp4,red,green,right,Countdown_2.5s.jpg,10,0,10,0,0,2,2,0,,,,,,,,,,,,1000.3806073000001,1001.4697754000001,1.0891681000000517,left,0,1.057764900000052,72,,,,,,,,,,,,,,,Tokka,2023-07-20_13h53.25.030,Rewa's Exp,2023.1.2,59.986419074716224,
Countdown_1.5s.mp4,red,green,right,Countdown_1.5s.jpg,10,0,10,0,0,3,3,2,,,,,,,,,,,,1005.3736548000002,1006.1033864000001,0.7297315999999228,right,1,0.6972063000001754,73,,,,,,,,,,,,,,,Tokka,2023-07-20_13h53.25.030,Rewa's Exp,2023.1.2,59.986419074716224,
Countdown_2s.mp4,green,red,left,Countdown_2s.jpg,10,0,10,0,0,4,4,5,,,,,,,,,,,,1010.0410779000001,1010.7365323000001,0.6954544000000169,left,1,0.668998900000247,74,,,,,,,,,,,,,,,Tokka,2023-07-20_13h53.25.030,Rewa's Exp,2023.1.2,59.986419074716224,
Countdown_1.5s.mp4,green,red,left,Countdown_1.5s.jpg,10,0,10,0,0,5,5,3,,,,,,,,,,,,1014.6741302,1015.3871479000002,0.7130177000001368,left,1,0.6838428999998314,75,,,,,,,,,,,,,,,Tokka,2023-07-20_13h53.25.030,Rewa's Exp,2023.1.2,59.986419074716224,
Countdown_2s.mp4,red,green,right,Countdown_2s.jpg,10,0,10,0,,,,,0,0,0,1,,,,,,,,1019.319356,1020.0705009000001,0.7511449000000994,,,,76,1025.626717,right,1,0.7270288999999366,,,,,,,,,,,Tokka,2023-07-20_13h53.25.030,Rewa's Exp,2023.1.2,59.986419074716224,
Countdown_1.5s.mp4,red,green,right,Countdown_1.5s.jpg,10,0,10,0,,,,,0,1,1,2,,,,,,,,1024.0026397000001,1024.8200011000001,0.8173613999999816,,,,77,1030.3099570999998,right,1,0.7874628999999231,,,,,,,,,,,Tokka,2023-07-20_13h53.25.030,Rewa's Exp,2023.1.2,59.986419074716224,
Countdown_2s.mp4,green,red,left,Countdown_2s.jpg,10,0,10,0,,,,,0,2,2,5,,,,,,,,1028.7209607,1029.7199822,0.9990215000000262,,,,78,1035.0283107,left,1,0.9743511000000353,,,,,,,,,,,Tokka,2023-07-20_13h53.25.030,Rewa's Exp,2023.1.2,59.986419074716224,
Countdown_2.5s.mp4,green,red,left,Countdown_2.5s.jpg,10,0,10,0,,,,,0,3,3,4,,,,,,,,1033.64127,1034.4032062,0.7619362000000365,,,,79,1039.948601,left,1,0.7338613999999097,,,,,,,,,,,Tokka,2023-07-20_13h53.25.030,Rewa's Exp,2023.1.2,59.986419074716224,
Countdown_1.5s.mp4,green,red,left,Countdown_1.5s.jpg,10,0,10,0,,,,,0,4,4,3,,,,,,,,1038.3247582000001,1039.2200462,0.8952879999999368,,,,80,1044.6321773,left,1,0.866190999999958,,,,,,,,,,,Tokka,2023-07-20_13h53.25.030,Rewa's Exp,2023.1.2,59.986419074716224,
Countdown_2.5s.mp4,red,green,right,Countdown_2.5s.jpg,10,0,10,0,,,,,0,5,5,0,,,,,,,,1043.1174804,1043.7870181,0.6695377000000917,,,,81,1049.4248360000001,right,1,0.6411558999999443,,,,,,,,,,,Tokka,2023-07-20_13h53.25.030,Rewa's Exp,2023.1.2,59.986419074716224,
Countdown_2s.mp4,red,green,right,Countdown_2s.jpg,10,0,10,0,,,,,,,,,0,0,0,1,,,,1047.7230419,1048.3868133,0.6637714000000869,,,,82,,,,,right,1,0.6432965000000195,,,,,,,,Tokka,2023-07-20_13h53.25.030,Rewa's Exp,2023.1.2,59.986419074716224,
Countdown_2s.mp4,green,red,left,Countdown_2s.jpg,10,0,10,0,,,,,,,,,0,1,1,5,,,,1052.2819974000001,1053.0034183,0.7214208999998846,,,,80,,,,,right,0,0.6925671000000193,,,,,,,,Tokka,2023-07-20_13h53.25.030,Rewa's Exp,2023.1.2,59.986419074716224,
Countdown_1.5s.mp4,green,red,left,Countdown_1.5s.jpg,10,0,10,0,,,,,,,,,0,2,2,3,,,,1056.9033762000001,1057.6202308000002,0.7168546000000333,,,,78,,,,,right,0,0.6873388000000205,,,,,,,,Tokka,2023-07-20_13h53.25.030,Rewa's Exp,2023.1.2,59.986419074716224,
Countdown_2.5s.mp4,green,red,left,Countdown_2.5s.jpg,10,0,10,0,,,,,,,,,0,3,3,4,,,,1061.590993,1062.5119862000001,0.9209932000001118,,,,79,,,,,left,1,0.887133899999867,,,,,,,,Tokka,2023-07-20_13h53.25.030,Rewa's Exp,2023.1.2,59.986419074716224,
Countdown_1.5s.mp4,red,green,right,Countdown_1.5s.jpg,10,0,10,0,,,,,,,,,0,4,4,2,,,,1066.4298193,1067.3867523000001,0.9569330000001628,,,,80,,,,,right,1,0.9282991000001175,,,,,,,,Tokka,2023-07-20_13h53.25.030,Rewa's Exp,2023.1.2,59.986419074716224,
Countdown_2.5s.mp4,red,green,right,Countdown_2.5s.jpg,10,0,10,0,,,,,,,,,0,5,5,0,,,,1071.3073649,1072.1533573000002,0.8459924000001138,,,,81,,,,,right,1,0.8280547000000524,,,,,,,,Tokka,2023-07-20_13h53.25.030,Rewa's Exp,2023.1.2,59.986419074716224,
,,,,,10,0,10,0,,,,,,,,,,,,,,,,,,,,,,,,,,,,,,1079.5883221,1079.5883221,1079.5883221,space,2.19760749999989,,,Tokka,2023-07-20_13h53.25.030,Rewa's Exp,2023.1.2,59.986419074716224,
Countdown_2.5s.mp4,red,green,right,Countdown_2.5s.jpg,11,0,11,0,0,0,0,0,,,,,,,,,,,,1078.256125,1079.1201143,0.8639892999999574,right,1,0.8466309000001502,82,,,,,,,,,,,,,,,Tokka,2023-07-20_13h53.25.030,Rewa's Exp,2023.1.2,59.986419074716224,
Countdown_1.5s.mp4,red,green,right,Countdown_1.5s.jpg,11,0,11,0,0,1,1,2,,,,,,,,,,,,1083.0161705,1083.7369410000001,0.7207705000000715,right,1,0.6946398999999701,83,,,,,,,,,,,,,,,Tokka,2023-07-20_13h53.25.030,Rewa's Exp,2023.1.2,59.986419074716224,
Countdown_1.5s.mp4,green,red,left,Countdown_1.5s.jpg,11,0,11,0,0,2,2,3,,,,,,,,,,,,1087.6632083000002,1088.3868927,0.723684399999911,left,1,0.6955827000000454,84,,,,,,,,,,,,,,,Tokka,2023-07-20_13h53.25.030,Rewa's Exp,2023.1.2,59.986419074716224,
Countdown_2s.mp4,green,red,left,Countdown_2s.jpg,11,0,11,0,0,3,3,5,,,,,,,,,,,,1092.2989523,1093.1200919,0.821139599999924,left,1,0.7950587999999925,85,,,,,,,,,,,,,,,Tokka,2023-07-20_13h53.25.030,Rewa's Exp,2023.1.2,59.986419074716224,
Countdown_2.5s.mp4,green,red,left,Countdown_2.5s.jpg,11,0,11,0,0,4,4,4,,,,,,,,,,,,1097.0135145000002,1097.8040463,0.790531799999826,left,1,0.7694765000002235,86,,,,,,,,,,,,,,,Tokka,2023-07-20_13h53.25.030,Rewa's Exp,2023.1.2,59.986419074716224,
Countdown_2s.mp4,red,green,right,Countdown_2s.jpg,11,0,11,0,0,5,5,1,,,,,,,,,,,,1101.7722505000002,1102.3866272,0.6143766999998661,right,1,0.5858301000001802,87,,,,,,,,,,,,,,,Tokka,2023-07-20_13h53.25.030,Rewa's Exp,2023.1.2,59.986419074716224,
Countdown_1.5s.mp4,red,green,right,Countdown_1.5s.jpg,11,0,11,0,,,,,0,0,0,2,,,,,,,,1106.3220488000002,1107.1366049,0.8145560999998906,,,,88,1112.6293918000001,right,1,0.7817647999999053,,,,,,,,,,,Tokka,2023-07-20_13h53.25.030,Rewa's Exp,2023.1.2,59.986419074716224,
Countdown_2s.mp4,red,green,right,Countdown_2s.jpg,11,0,11,0,,,,,0,1,1,1,,,,,,,,1111.0426969,1111.7538981,0.711201200000005,,,,89,1117.3500608999998,right,1,0.6923998999999412,,,,,,,,,,,Tokka,2023-07-20_13h53.25.030,Rewa's Exp,2023.1.2,59.986419074716224,
Countdown_2.5s.mp4,green,red,left,Countdown_2.5s.jpg,11,0,11,0,,,,,0,2,2,4,,,,,,,,1115.7237824000001,1116.5367794000001,0.8129969999999958,,,,90,1122.0311203,left,1,0.7870781000000306,,,,,,,,,,,Tokka,2023-07-20_13h53.25.030,Rewa's Exp,2023.1.2,59.986419074716224,
Countdown_2s.mp4,green,red,left,Countdown_2s.jpg,11,0,11,0,,,,,0,3,3,5,,,,,,,,1120.4909606,1121.6366691,1.1457084999999552,,,,91,1126.7983126,left,1,1.1233842000000323,,,,,,,,,,,Tokka,2023-07-20_13h53.25.030,Rewa's Exp,2023.1.2,59.986419074716224,
Countdown_2.5s.mp4,red,green,right,Countdown_2.5s.jpg,11,0,11,0,,,,,0,4,4,0,,,,,,,,1125.529524,1126.1367438,0.6072197999999389,,,,92,1131.8368882,right,1,0.5901473000000124,,,,,,,,,,,Tokka,2023-07-20_13h53.25.030,Rewa's Exp,2023.1.2,59.986419074716224,
Countdown_1.5s.mp4,green,red,left,Countdown_1.5s.jpg,11,0,11,0,,,,,0,5,5,3,,,,,,,,1130.0663056,1130.8530827000002,0.7867771000001085,,,,93,1136.3736622000001,left,1,0.7637352000000419,,,,,,,,,,,Tokka,2023-07-20_13h53.25.030,Rewa's Exp,2023.1.2,59.986419074716224,
Countdown_2s.mp4,green,red,left,Countdown_2s.jpg,11,0,11,0,,,,,,,,,0,0,0,5,,,,1134.7487347,1135.7200520000001,0.9713173000000097,,,,94,,,,,left,1,0.9385793000000149,,,,,,,,Tokka,2023-07-20_13h53.25.030,Rewa's Exp,2023.1.2,59.986419074716224,
Countdown_1.5s.mp4,green,red,left,Countdown_1.5s.jpg,11,0,11,0,,,,,,,,,0,1,1,3,,,,1139.6659437,1140.2869244,0.6209807000000183,,,,95,,,,,left,1,0.5969481000000769,,,,,,,,Tokka,2023-07-20_13h53.25.030,Rewa's Exp,2023.1.2,59.986419074716224,
Countdown_2.5s.mp4,red,green,right,Countdown_2.5s.jpg,11,0,11,0,,,,,,,,,0,2,2,0,,,,1144.1688546,1144.9211268000001,0.7522722000001067,,,,96,,,,,right,1,0.7259886000000506,,,,,,,,Tokka,2023-07-20_13h53.25.030,Rewa's Exp,2023.1.2,59.986419074716224,
Countdown_2.5s.mp4,green,red,left,Countdown_2.5s.jpg,11,0,11,0,,,,,,,,,0,3,3,4,,,,1148.8903533,1149.6537769000001,0.7634236000001238,,,,97,,,,,left,1,0.7315328999999338,,,,,,,,Tokka,2023-07-20_13h53.25.030,Rewa's Exp,2023.1.2,59.986419074716224,
Countdown_2s.mp4,red,green,right,Countdown_2s.jpg,11,0,11,0,,,,,,,,,0,4,4,1,,,,1153.5903572,1154.2033333000002,0.6129761000001963,,,,98,,,,,right,1,0.5844849000001204,,,,,,,,Tokka,2023-07-20_13h53.25.030,Rewa's Exp,2023.1.2,59.986419074716224,
Countdown_1.5s.mp4,red,green,right,Countdown_1.5s.jpg,11,0,11,0,,,,,,,,,0,5,5,2,,,,1158.1075073000002,1158.7702325,0.6627251999998407,,,,96,,,,,left,0,0.6434596000000283,,,,,,,,Tokka,2023-07-20_13h53.25.030,Rewa's Exp,2023.1.2,59.986419074716224,
,,,,,11,0,11,0,,,,,,,,,,,,,,,,,,,,,,,,,,,,,,1166.2053892,1166.2053892,1166.2053892,space,1.7414270999998962,,,Tokka,2023-07-20_13h53.25.030,Rewa's Exp,2023.1.2,59.986419074716224,
Countdown_2.5s.mp4,red,green,right,Countdown_2.5s.jpg,12,0,12,0,0,0,0,0,,,,,,,,,,,,1164.4339359,1165.5367156,1.1027796999999282,right,1,1.077970799999889,97,,,,,,,,,,,,,,,Tokka,2023-07-20_13h53.25.030,Rewa's Exp,2023.1.2,59.986419074716224,
Countdown_2.5s.mp4,green,red,left,Countdown_2.5s.jpg,12,0,12,0,0,1,1,4,,,,,,,,,,,,1169.4295511,1170.2701737,0.8406225999999606,left,1,0.8173717000000806,98,,,,,,,,,,,,,,,Tokka,2023-07-20_13h53.25.030,Rewa's Exp,2023.1.2,59.986419074716224,
Countdown_2s.mp4,green,red,left,Countdown_2s.jpg,12,0,12,0,0,2,2,5,,,,,,,,,,,,1174.1857200000002,1174.8204705,0.6347504999998819,left,1,0.6136853000001565,99,,,,,,,,,,,,,,,Tokka,2023-07-20_13h53.25.030,Rewa's Exp,2023.1.2,59.986419074716224,
Countdown_2s.mp4,red,green,right,Countdown_2s.jpg,12,0,12,0,0,3,3,1,,,,,,,,,,,,1178.7948007,1179.5036313,0.7088306000000557,right,1,0.6763827000000902,100,,,,,,,,,,,,,,,Tokka,2023-07-20_13h53.25.030,Rewa's Exp,2023.1.2,59.986419074716224,
Countdown_1.5s.mp4,green,red,left,Countdown_1.5s.jpg,12,0,12,0,0,4,4,3,,,,,,,,,,,,1183.4238337000002,1184.0868297000002,0.662996000000021,left,1,0.6462717000000566,101,,,,,,,,,,,,,,,Tokka,2023-07-20_13h53.25.030,Rewa's Exp,2023.1.2,59.986419074716224,
Countdown_1.5s.mp4,red,green,right,Countdown_1.5s.jpg,12,0,12,0,0,5,5,2,,,,,,,,,,,,1187.9735269,1188.6368779000002,0.6633510000001479,right,1,0.633549200000175,102,,,,,,,,,,,,,,,Tokka,2023-07-20_13h53.25.030,Rewa's Exp,2023.1.2,59.986419074716224,
Countdown_2.5s.mp4,green,red,left,Countdown_2.5s.jpg,12,0,12,0,,,,,0,0,0,4,,,,,,,,1192.5278629000002,1193.2536092,0.7257462999998552,,,,103,1198.8352181,left,1,0.6945260999999618,,,,,,,,,,,Tokka,2023-07-20_13h53.25.030,Rewa's Exp,2023.1.2,59.986419074716224,
Countdown_2.5s.mp4,red,green,right,Countdown_2.5s.jpg,12,0,12,0,,,,,0,1,1,0,,,,,,,,1197.1702017,1197.9537252,0.7835235000000011,,,,101,1203.4775226000002,left,0,0.7647676000000274,,,,,,,,,,,Tokka,2023-07-20_13h53.25.030,Rewa's Exp,2023.1.2,59.986419074716224,
Countdown_1.5s.mp4,green,red,left,Countdown_1.5s.jpg,12,0,12,0,,,,,0,2,2,3,,,,,,,,1201.8548598,1202.6368818,0.7820220000000973,,,,102,1208.1622265,left,1,0.7518917000001011,,,,,,,,,,,Tokka,2023-07-20_13h53.25.030,Rewa's Exp,2023.1.2,59.986419074716224,
Countdown_2s.mp4,red,green,right,Countdown_2s.jpg,12,0,12,0,,,,,0,3,3,1,,,,,,,,1206.536875,1207.2201293,0.6832543000000442,,,,103,1212.844235,right,1,0.6623777000000928,,,,,,,,,,,Tokka,2023-07-20_13h53.25.030,Rewa's Exp,2023.1.2,59.986419074716224,
Countdown_1.5s.mp4,red,green,right,Countdown_1.5s.jpg,12,0,12,0,,,,,0,4,4,2,,,,,,,,1211.128858,1211.9704143000001,0.841556300000093,,,,104,1217.4362219,right,1,0.8137356000000864,,,,,,,,,,,Tokka,2023-07-20_13h53.25.030,Rewa's Exp,2023.1.2,59.986419074716224,
Countdown_2s.mp4,green,red,left,Countdown_2s.jpg,12,0,12,0,,,,,0,5,5,5,,,,,,,,1215.8828330000001,1216.6703909,0.7875578999999107,,,,105,1222.1901822,left,1,0.7560297000001128,,,,,,,,,,,Tokka,2023-07-20_13h53.25.030,Rewa's Exp,2023.1.2,59.986419074716224,
Countdown_1.5s.mp4,red,green,right,Countdown_1.5s.jpg,12,0,12,0,,,,,,,,,0,0,0,2,,,,1220.5943363000001,1221.5040267000002,0.909690400000045,,,,106,,,,,right,1,0.8767661999999063,,,,,,,,Tokka,2023-07-20_13h53.25.030,Rewa's Exp,2023.1.2,59.986419074716224,
Countdown_2s.mp4,green,red,left,Countdown_2s.jpg,12,0,12,0,,,,,,,,,0,1,1,5,,,,1225.4378393000002,1226.3538587,0.9160193999998683,,,,107,,,,,left,1,0.889162600000077,,,,,,,,Tokka,2023-07-20_13h53.25.030,Rewa's Exp,2023.1.2,59.986419074716224,
Countdown_1.5s.mp4,green,red,left,Countdown_1.5s.jpg,12,0,12,0,,,,,,,,,0,2,2,3,,,,1230.3128495,1231.3700808,1.0572313000000122,,,,105,,,,,right,0,1.0306507000001375,,,,,,,,Tokka,2023-07-20_13h53.25.030,Rewa's Exp,2023.1.2,59.986419074716224,
Countdown_2.5s.mp4,green,red,left,Countdown_2.5s.jpg,12,0,12,0,,,,,,,,,0,3,3,4,,,,1235.2735952,1236.4367418000002,1.1631466000001183,,,,106,,,,,left,1,1.1338101000000051,,,,,,,,Tokka,2023-07-20_13h53.25.030,Rewa's Exp,2023.1.2,59.986419074716224,
Countdown_2s.mp4,red,green,right,Countdown_2s.jpg,12,0,12,0,,,,,,,,,0,4,4,1,,,,1240.3521853,1241.0369954,0.6848101000000497,,,,107,,,,,right,1,0.6621794999999793,,,,,,,,Tokka,2023-07-20_13h53.25.030,Rewa's Exp,2023.1.2,59.986419074716224,
Countdown_2.5s.mp4,red,green,right,Countdown_2.5s.jpg,12,0,12,0,,,,,,,,,0,5,5,0,,,,1244.9643859,1245.8536808000001,0.8892949000000954,,,,105,,,,,left,0,0.8583053999999493,,,,,,,,Tokka,2023-07-20_13h53.25.030,Rewa's Exp,2023.1.2,59.986419074716224,
,,,,,12,0,12,0,,,,,,,,,,,,,,,,,,,,,,,,,,,,,,1253.3053968999998,1253.3053968999998,1253.3053968999998,space,3.7846821000001682,,,Tokka,2023-07-20_13h53.25.030,Rewa's Exp,2023.1.2,59.986419074716224,
Countdown_2s.mp4,red,green,right,Countdown_2s.jpg,13,0,13,0,0,0,0,1,,,,,,,,,,,,1253.5945513000001,1254.6869139,1.0923625999998876,right,1,1.0602559000000156,106,,,,,,,,,,,,,,,Tokka,2023-07-20_13h53.25.030,Rewa's Exp,2023.1.2,59.986419074716224,
Countdown_2.5s.mp4,red,green,right,Countdown_2.5s.jpg,13,0,13,0,0,1,1,0,,,,,,,,,,,,1258.6230744000002,1259.8037663,1.1806918999998288,right,1,1.1521098000001757,107,,,,,,,,,,,,,,,Tokka,2023-07-20_13h53.25.030,Rewa's Exp,2023.1.2,59.986419074716224,
Countdown_2.5s.mp4,green,red,left,Countdown_2.5s.jpg,13,0,13,0,0,2,2,4,,,,,,,,,,,,1263.7008453,1264.4543196,0.7534742999998798,left,1,0.7215386000001445,108,,,,,,,,,,,,,,,Tokka,2023-07-20_13h53.25.030,Rewa's Exp,2023.1.2,59.986419074716224,
Countdown_1.5s.mp4,green,red,left,Countdown_1.5s.jpg,13,0,13,0,0,3,3,3,,,,,,,,,,,,1268.3785293,1269.0037752,0.6252458999999817,left,1,0.5969002000000501,109,,,,,,,,,,,,,,,Tokka,2023-07-20_13h53.25.030,Rewa's Exp,2023.1.2,59.986419074716224,
Countdown_2s.mp4,green,red,left,Countdown_2s.jpg,13,0,13,0,0,4,4,5,,,,,,,,,,,,1272.8899867,1273.5370754,0.6470887000000403,left,1,0.6214335999999321,110,,,,,,,,,,,,,,,Tokka,2023-07-20_13h53.25.030,Rewa's Exp,2023.1.2,59.986419074716224,
Countdown_1.5s.mp4,red,green,right,Countdown_1.5s.jpg,13,0,13,0,0,5,5,2,,,,,,,,,,,,1277.4505465,1278.1038892000001,0.6533427000001666,right,1,0.6207417000001669,111,,,,,,,,,,,,,,,Tokka,2023-07-20_13h53.25.030,Rewa's Exp,2023.1.2,59.986419074716224,
Countdown_2.5s.mp4,red,green,right,Countdown_2.5s.jpg,13,0,13,0,,,,,0,0,0,0,,,,,,,,1282.0249265,1282.7203571,0.6954306000000088,,,,112,1288.3322727,right,1,0.6692664000000832,,,,,,,,,,,Tokka,2023-07-20_13h53.25.030,Rewa's Exp,2023.1.2,59.986419074716224,
Countdown_2s.mp4,green,red,left,Countdown_2s.jpg,13,0,13,0,,,,,0,1,1,5,,,,,,,,1286.6218537,1287.570921,0.9490673000000243,,,,113,1292.9291795,left,1,0.9299064999999018,,,,,,,,,,,Tokka,2023-07-20_13h53.25.030,Rewa's Exp,2023.1.2,59.986419074716224,
Countdown_2s.mp4,red,green,right,Countdown_2s.jpg,13,0,13,0,,,,,0,2,2,1,,,,,,,,1291.5070025,1292.2871211000001,0.7801186000001508,,,,114,1297.8143544999998,right,1,0.7561712999998917,,,,,,,,,,,Tokka,2023-07-20_13h53.25.030,Rewa's Exp,2023.1.2,59.986419074716224,
Countdown_1.5s.mp4,red,green,right,Countdown_1.5s.jpg,13,0,13,0,,,,,0,3,3,2,,,,,,,,1296.1925985,1297.1874376,0.9948391000000356,,,,112,1302.4999383999998,left,0,0.973642199999972,,,,,,,,,,,Tokka,2023-07-20_13h53.25.030,Rewa's Exp,2023.1.2,59.986419074716224,
Countdown_2.5s.mp4,green,red,left,Countdown_2.5s.jpg,13,0,13,0,,,,,0,4,4,4,,,,,,,,1301.1530837,1301.9537901,0.800706400000081,,,,113,1307.4603960999998,left,1,0.7739477000001216,,,,,,,,,,,Tokka,2023-07-20_13h53.25.030,Rewa's Exp,2023.1.2,59.986419074716224,
Countdown_1.5s.mp4,green,red,left,Countdown_1.5s.jpg,13,0,13,0,,,,,0,5,5,3,,,,,,,,1305.8682999,1306.9704525,1.102152599999954,,,,114,1312.1756486,left,1,1.083337400000005,,,,,,,,,,,Tokka,2023-07-20_13h53.25.030,Rewa's Exp,2023.1.2,59.986419074716224,
Countdown_1.5s.mp4,green,red,left,Countdown_1.5s.jpg,13,0,13,0,,,,,,,,,0,0,0,3,,,,1310.8793906,1311.6871504,0.8077597999999853,,,,115,,,,,left,1,0.7758792000000767,,,,,,,,Tokka,2023-07-20_13h53.25.030,Rewa's Exp,2023.1.2,59.986419074716224,
Countdown_2.5s.mp4,red,green,right,Countdown_2.5s.jpg,13,0,13,0,,,,,,,,,0,1,1,0,,,,1315.5972043000002,1316.2370724,0.6398680999998305,,,,116,,,,,right,1,0.6170667999998614,,,,,,,,Tokka,2023-07-20_13h53.25.030,Rewa's Exp,2023.1.2,59.986419074716224,
Countdown_2s.mp4,green,red,left,Countdown_2s.jpg,13,0,13,0,,,,,,,,,0,2,2,5,,,,1320.1577958,1321.0204096,0.8626137999999628,,,,117,,,,,left,1,0.8328081000000793,,,,,,,,Tokka,2023-07-20_13h53.25.030,Rewa's Exp,2023.1.2,59.986419074716224,
Countdown_1.5s.mp4,red,green,right,Countdown_1.5s.jpg,13,0,13,0,,,,,,,,,0,3,3,2,,,,1324.9120092,1325.7373594,0.8253502000000026,,,,115,,,,,left,0,0.8071332999999186,,,,,,,,Tokka,2023-07-20_13h53.25.030,Rewa's Exp,2023.1.2,59.986419074716224,
Countdown_2.5s.mp4,green,red,left,Countdown_2.5s.jpg,13,0,13,0,,,,,,,,,0,4,4,4,,,,1329.633969,1330.4372972,0.8033282000001236,,,,116,,,,,left,1,0.7728651000001037,,,,,,,,Tokka,2023-07-20_13h53.25.030,Rewa's Exp,2023.1.2,59.986419074716224,
Countdown_2s.mp4,red,green,right,Countdown_2s.jpg,13,0,13,0,,,,,,,,,0,5,5,1,,,,1334.3559973000001,1335.2040085,0.8480111999999735,,,,117,,,,,right,1,0.8274526000001288,,,,,,,,Tokka,2023-07-20_13h53.25.030,Rewa's Exp,2023.1.2,59.986419074716224,
,,,,,13,0,13,0,,,,,,,,,,,,,,,,,,,,,,,,,,,,,,1342.6388605000002,1342.6388605000002,1342.6388605000002,space,3.1154147999999395,,,Tokka,2023-07-20_13h53.25.030,Rewa's Exp,2023.1.2,59.986419074716224,
Countdown_2s.mp4,green,red,left,Countdown_2s.jpg,14,0,14,0,0,0,0,5,,,,,,,,,,,,1342.2738905,1343.0869978,0.813107299999956,left,1,0.780155499999978,118,,,,,,,,,,,,,,,Tokka,2023-07-20_13h53.25.030,Rewa's Exp,2023.1.2,59.986419074716224,
Countdown_1.5s.mp4,green,red,left,Countdown_1.5s.jpg,14,0,14,0,0,1,1,3,,,,,,,,,,,,1346.9958011,1347.6537302000002,0.6579291000000467,left,1,0.6268128000000388,119,,,,,,,,,,,,,,,Tokka,2023-07-20_13h53.25.030,Rewa's Exp,2023.1.2,59.986419074716224,
Countdown_2.5s.mp4,green,red,left,Countdown_2.5s.jpg,14,0,14,0,0,2,2,4,,,,,,,,,,,,1351.5427243000001,1352.2205403,0.6778159999998934,left,1,0.6560909000000947,120,,,,,,,,,,,,,,,Tokka,2023-07-20_13h53.25.030,Rewa's Exp,2023.1.2,59.986419074716224,
Countdown_1.5s.mp4,red,green,right,Countdown_1.5s.jpg,14,0,14,0,0,3,3,2,,,,,,,,,,,,1356.1362982,1356.8537601,0.7174618999999893,right,1,0.6940020999999206,121,,,,,,,,,,,,,,,Tokka,2023-07-20_13h53.25.030,Rewa's Exp,2023.1.2,59.986419074716224,
Countdown_2.5s.mp4,red,green,right,Countdown_2.5s.jpg,14,0,14,0,0,4,4,0,,,,,,,,,,,,1360.7685472,1361.60411,0.8355627999999342,right,1,0.8145108999998456,122,,,,,,,,,,,,,,,Tokka,2023-07-20_13h53.25.030,Rewa's Exp,2023.1.2,59.986419074716224,
Countdown_2s.mp4,red,green,right,Countdown_2s.jpg,14,0,14,0,0,5,5,1,,,,,,,,,,,,1365.568086,1366.2872143,0.7191282999999657,right,1,0.6873134000001073,123,,,,,,,,,,,,,,,Tokka,2023-07-20_13h53.25.030,Rewa's Exp,2023.1.2,59.986419074716224,
Countdown_1.5s.mp4,red,green,right,Countdown_1.5s.jpg,14,0,14,0,,,,,0,0,0,2,,,,,,,,1370.2314507,1370.9871628,0.7557120999999825,,,,124,1376.5387968999999,right,1,0.7271795000000338,,,,,,,,,,,Tokka,2023-07-20_13h53.25.030,Rewa's Exp,2023.1.2,59.986419074716224,
Countdown_2.5s.mp4,green,red,left,Countdown_2.5s.jpg,14,0,14,0,,,,,0,1,1,4,,,,,,,,1374.9511237000002,1375.6371942,0.6860704999999143,,,,125,1381.2584831,left,1,0.6552419000000782,,,,,,,,,,,Tokka,2023-07-20_13h53.25.030,Rewa's Exp,2023.1.2,59.986419074716224,
Countdown_2.5s.mp4,red,green,right,Countdown_2.5s.jpg,14,0,14,0,,,,,0,2,2,0,,,,,,,,1379.5487338,1380.4706130000002,0.9218792000001486,,,,126,1385.8560848000002,right,1,0.889708799999994,,,,,,,,,,,Tokka,2023-07-20_13h53.25.030,Rewa's Exp,2023.1.2,59.986419074716224,
Countdown_2s.mp4,green,red,left,Countdown_2s.jpg,14,0,14,0,,,,,0,3,3,5,,,,,,,,1384.3947537000001,1385.1538722,0.7591184999998859,,,,127,1390.7021080999998,left,1,0.7405406999999968,,,,,,,,,,,Tokka,2023-07-20_13h53.25.030,Rewa's Exp,2023.1.2,59.986419074716224,
Countdown_2s.mp4,red,green,right,Countdown_2s.jpg,14,0,14,0,,,,,0,4,4,1,,,,,,,,1389.0798926,1389.854032,0.7741393999999673,,,,128,1395.3872496999998,right,1,0.7512406000001874,,,,,,,,,,,Tokka,2023-07-20_13h53.25.030,Rewa's Exp,2023.1.2,59.986419074716224,
Countdown_1.5s.mp4,green,red,left,Countdown_1.5s.jpg,14,0,14,0,,,,,0,5,5,3,,,,,,,,1393.7734936000002,1394.7041327000002,0.9306391000000076,,,,129,1400.0808467000002,left,1,0.9055357000000868,,,,,,,,,,,Tokka,2023-07-20_13h53.25.030,Rewa's Exp,2023.1.2,59.986419074716224,
Countdown_1.5s.mp4,green,red,left,Countdown_1.5s.jpg,14,0,14,0,,,,,,,,,0,0,0,3,,,,1398.6353017000001,1399.2873224,0.6520206999998663,,,,130,,,,,left,1,0.6280513000000383,,,,,,,,Tokka,2023-07-20_13h53.25.030,Rewa's Exp,2023.1.2,59.986419074716224,
Countdown_2.5s.mp4,green,red,left,Countdown_2.5s.jpg,14,0,14,0,,,,,,,,,0,1,1,4,,,,1403.2343179000002,1404.3875795000001,1.1532615999999507,,,,131,,,,,left,1,1.1324034000000438,,,,,,,,Tokka,2023-07-20_13h53.25.030,Rewa's Exp,2023.1.2,59.986419074716224,
Countdown_2s.mp4,green,red,left,Countdown_2s.jpg,14,0,14,0,,,,,,,,,0,2,2,5,,,,1408.3484687,1409.0878360000002,0.73936730000014,,,,132,,,,,left,1,0.7068927999999914,,,,,,,,Tokka,2023-07-20_13h53.25.030,Rewa's Exp,2023.1.2,59.986419074716224,
Countdown_1.5s.mp4,red,green,right,Countdown_1.5s.jpg,14,0,14,0,,,,,,,,,0,3,3,2,,,,1412.9711336,1413.6042109,0.6330772999999681,,,,133,,,,,right,1,0.6127363000001651,,,,,,,,Tokka,2023-07-20_13h53.25.030,Rewa's Exp,2023.1.2,59.986419074716224,
Countdown_2s.mp4,red,green,right,Countdown_2s.jpg,14,0,14,0,,,,,,,,,0,4,4,1,,,,1417.5714063,1418.3041254,0.7327190999999402,,,,134,,,,,right,1,0.7068366000002015,,,,,,,,Tokka,2023-07-20_13h53.25.030,Rewa's Exp,2023.1.2,59.986419074716224,
Countdown_2.5s.mp4,red,green,right,Countdown_2.5s.jpg,14,0,14,0,,,,,,,,,0,5,5,0,,,,1422.2424290000001,1423.3204440000002,1.0780150000000503,,,,132,,,,,left,0,1.0535183999999163,,,,,,,,Tokka,2023-07-20_13h53.25.030,Rewa's Exp,2023.1.2,59.986419074716224,
,,,,,14,0,14,0,,,,,,,,,,,,,,,,,,,,,,,,,,,,,,1430.7723878000002,1430.7723878000002,1430.7723878000002,space,2.7897838000002366,,,Tokka,2023-07-20_13h53.25.030,Rewa's Exp,2023.1.2,59.986419074716224,
Countdown_2.5s.mp4,red,green,right,Countdown_2.5s.jpg,15,0,15,0,0,0,0,0,,,,,,,,,,,,1430.0422764,1431.3207316,1.278455200000053,right,1,1.2530525000000807,133,,,,,,,,,,,,,,,Tokka,2023-07-20_13h53.25.030,Rewa's Exp,2023.1.2,59.986419074716224,
Countdown_1.5s.mp4,green,red,left,Countdown_1.5s.jpg,15,0,15,0,0,1,1,3,,,,,,,,,,,,1435.2393831000002,1435.9875235000002,0.7481404000000111,left,1,0.719642300000146,134,,,,,,,,,,,,,,,Tokka,2023-07-20_13h53.25.030,Rewa's Exp,2023.1.2,59.986419074716224,
Countdown_2s.mp4,green,red,left,Countdown_2s.jpg,15,0,15,0,0,2,2,5,,,,,,,,,,,,1439.9332499,1440.5873309,0.6540810000001329,left,1,0.62633859999994,135,,,,,,,,,,,,,,,Tokka,2023-07-20_13h53.25.030,Rewa's Exp,2023.1.2,59.986419074716224,
Countdown_2.5s.mp4,green,red,left,Countdown_2.5s.jpg,15,0,15,0,0,3,3,4,,,,,,,,,,,,1444.4915821,1445.370588,0.8790059000000383,left,1,0.8516270999999733,136,,,,,,,,,,,,,,,Tokka,2023-07-20_13h53.25.030,Rewa's Exp,2023.1.2,59.986419074716224,
Countdown_1.5s.mp4,red,green,right,Countdown_1.5s.jpg,15,0,15,0,0,4,4,2,,,,,,,,,,,,1449.2860481,1450.0383426,0.7522945000000618,right,1,0.7290985999999293,137,,,,,,,,,,,,,,,Tokka,2023-07-20_13h53.25.030,Rewa's Exp,2023.1.2,59.986419074716224,
Countdown_2s.mp4,red,green,right,Countdown_2s.jpg,15,0,15,0,0,5,5,1,,,,,,,,,,,,1453.9607501,1454.9374464,0.9766962999999578,right,1,0.9494243000000324,138,,,,,,,,,,,,,,,Tokka,2023-07-20_13h53.25.030,Rewa's Exp,2023.1.2,59.986419074716224,
Countdown_2s.mp4,green,red,left,Countdown_2s.jpg,15,0,15,0,,,,,0,0,0,5,,,,,,,,1458.8478589000001,1459.7040815,0.85622259999991,,,,139,1465.1552523999999,left,1,0.823433399999999,,,,,,,,,,,Tokka,2023-07-20_13h53.25.030,Rewa's Exp,2023.1.2,59.986419074716224,
Countdown_1.5s.mp4,red,green,right,Countdown_1.5s.jpg,15,0,15,0,,,,,0,1,1,2,,,,,,,,1463.6150643,1464.3207178,0.7056534999999258,,,,140,1469.9224365999999,right,1,0.6792569999998932,,,,,,,,,,,Tokka,2023-07-20_13h53.25.030,Rewa's Exp,2023.1.2,59.986419074716224,
Countdown_2.5s.mp4,red,green,right,Countdown_2.5s.jpg,15,0,15,0,,,,,0,2,2,0,,,,,,,,1468.2556021,1469.0880575,0.8324554000000717,,,,138,1474.5629481,left,0,0.8082880000000614,,,,,,,,,,,Tokka,2023-07-20_13h53.25.030,Rewa's Exp,2023.1.2,59.986419074716224,
Countdown_2s.mp4,red,green,right,Countdown_2s.jpg,15,0,15,0,,,,,0,3,3,1,,,,,,,,1473.0169224,1473.8208530000002,0.8039306000000579,,,,139,1479.3243102000001,right,1,0.7740621000001511,,,,,,,,,,,Tokka,2023-07-20_13h53.25.030,Rewa's Exp,2023.1.2,59.986419074716224,
Countdown_2.5s.mp4,green,red,left,Countdown_2.5s.jpg,15,0,15,0,,,,,0,4,4,4,,,,,,,,1477.7385819,1478.5208523000001,0.7822704000000158,,,,140,1484.0459354,left,1,0.7649716000001945,,,,,,,,,,,Tokka,2023-07-20_13h53.25.030,Rewa's Exp,2023.1.2,59.986419074716224,
Countdown_1.5s.mp4,green,red,left,Countdown_1.5s.jpg,15,0,15,0,,,,,0,5,5,3,,,,,,,,1482.438182,1483.3709108,0.9327287999999498,,,,141,1488.74555,left,1,0.9050688999999466,,,,,,,,,,,Tokka,2023-07-20_13h53.25.030,Rewa's Exp,2023.1.2,59.986419074716224,
Countdown_2s.mp4,red,green,right,Countdown_2s.jpg,15,0,15,0,,,,,,,,,0,0,0,1,,,,1487.2994524,1488.104255,0.8048025999999027,,,,142,,,,,right,1,0.7799115999999913,,,,,,,,Tokka,2023-07-20_13h53.25.030,Rewa's Exp,2023.1.2,59.986419074716224,
Countdown_1.5s.mp4,red,green,right,Countdown_1.5s.jpg,15,0,15,0,,,,,,,,,0,1,1,2,,,,1492.0071478,1492.6543082,0.6471604000000752,,,,143,,,,,right,1,0.61524820000011,,,,,,,,Tokka,2023-07-20_13h53.25.030,Rewa's Exp,2023.1.2,59.986419074716224,
Countdown_2.5s.mp4,red,green,right,Countdown_2.5s.jpg,15,0,15,0,,,,,,,,,0,2,2,0,,,,1496.5594627,1497.1707493000001,0.611286600000085,,,,144,,,,,right,1,0.5916220000000294,,,,,,,,Tokka,2023-07-20_13h53.25.030,Rewa's Exp,2023.1.2,59.986419074716224,
Countdown_2.5s.mp4,green,red,left,Countdown_2.5s.jpg,15,0,15,0,,,,,,,,,0,3,3,4,,,,1501.1021014,1501.7041095000002,0.6020081000001483,,,,142,,,,,right,0,0.576866300000006,,,,,,,,Tokka,2023-07-20_13h53.25.030,Rewa's Exp,2023.1.2,59.986419074716224,
Countdown_1.5s.mp4,green,red,left,Countdown_1.5s.jpg,15,0,15,0,,,,,,,,,0,4,4,3,,,,1505.6124225,1506.5709244,0.9585018999998738,,,,143,,,,,left,1,0.9307248999999729,,,,,,,,Tokka,2023-07-20_13h53.25.030,Rewa's Exp,2023.1.2,59.986419074716224,
Countdown_2s.mp4,green,red,left,Countdown_2s.jpg,15,0,15,0,,,,,,,,,0,5,5,5,,,,1510.4775572,1511.4710976000001,0.993540400000029,,,,144,,,,,left,1,0.9767399000000978,,,,,,,,Tokka,2023-07-20_13h53.25.030,Rewa's Exp,2023.1.2,59.986419074716224,
,,,,,15,0,15,0,,,,,,,,,,,,,,,,,,,,,,,,,,,,,,1518.9224905,1518.9224905,1518.9224905,space,2.312794200000212,,,Tokka,2023-07-20_13h53.25.030,Rewa's Exp,2023.1.2,59.986419074716224,
Countdown_1.5s.mp4,red,green,right,Countdown_1.5s.jpg,16,0,16,0,0,0,0,2,,,,,,,,,,,,1517.7087283,1518.4213364,0.7126080999998976,right,1,0.690415100000223,145,,,,,,,,,,,,,,,Tokka,2023-07-20_13h53.25.030,Rewa's Exp,2023.1.2,59.986419074716224,
Countdown_1.5s.mp4,green,red,left,Countdown_1.5s.jpg,16,0,16,0,0,1,1,3,,,,,,,,,,,,1522.3906938,1523.1046201000001,0.7139263000001392,left,1,0.6964655000000448,146,,,,,,,,,,,,,,,Tokka,2023-07-20_13h53.25.030,Rewa's Exp,2023.1.2,59.986419074716224,
Countdown_2s.mp4,red,green,right,Countdown_2s.jpg,16,0,16,0,0,2,2,1,,,,,,,,,,,,1527.0303921,1527.7045324,0.6741403000000901,right,1,0.6491101000002573,147,,,,,,,,,,,,,,,Tokka,2023-07-20_13h53.25.030,Rewa's Exp,2023.1.2,59.986419074716224,
Countdown_2s.mp4,green,red,left,Countdown_2s.jpg,16,0,16,0,0,3,3,5,,,,,,,,,,,,1531.6842931,1532.4541410000002,0.7698479000000589,left,1,0.7380131000001029,148,,,,,,,,,,,,,,,Tokka,2023-07-20_13h53.25.030,Rewa's Exp,2023.1.2,59.986419074716224,
Countdown_2.5s.mp4,red,green,right,Countdown_2.5s.jpg,16,0,16,0,0,4,4,0,,,,,,,,,,,,1536.3964977,1537.1208746,0.7243768999999247,left,0,0.7070968000001585,146,,,,,,,,,,,,,,,Tokka,2023-07-20_13h53.25.030,Rewa's Exp,2023.1.2,59.986419074716224,
Countdown_2.5s.mp4,green,red,left,Countdown_2.5s.jpg,16,0,16,0,0,5,5,4,,,,,,,,,,,,1541.0422123,1541.7711173,0.7289049999999406,left,1,0.7013101999999662,147,,,,,,,,,,,,,,,Tokka,2023-07-20_13h53.25.030,Rewa's Exp,2023.1.2,59.986419074716224,
Countdown_1.5s.mp4,green,red,left,Countdown_1.5s.jpg,16,0,16,0,,,,,0,0,0,3,,,,,,,,1545.6979315,1546.5543240000002,0.8563925000000836,,,,148,1552.0052437999998,left,1,0.8374396000000388,,,,,,,,,,,Tokka,2023-07-20_13h53.25.030,Rewa's Exp,2023.1.2,59.986419074716224,
Countdown_2s.mp4,green,red,left,Countdown_2s.jpg,16,0,16,0,,,,,0,1,1,5,,,,,,,,1550.4595205,1551.0544231000001,0.5949026000000686,,,,149,1556.7668822,left,1,0.5627418000000262,,,,,,,,,,,Tokka,2023-07-20_13h53.25.030,Rewa's Exp,2023.1.2,59.986419074716224,
Countdown_2s.mp4,red,green,right,Countdown_2s.jpg,16,0,16,0,,,,,0,2,2,1,,,,,,,,1554.9718685,1555.7043565000001,0.7324880000001031,,,,150,1561.279219,right,1,0.6996978999999328,,,,,,,,,,,Tokka,2023-07-20_13h53.25.030,Rewa's Exp,2023.1.2,59.986419074716224,
Countdown_2.5s.mp4,red,green,right,Countdown_2.5s.jpg,16,0,16,0,,,,,0,3,3,0,,,,,,,,1559.6562039,1560.3543446,0.6981407000000672,,,,151,1565.9635487,right,1,0.6791592000000719,,,,,,,,,,,Tokka,2023-07-20_13h53.25.030,Rewa's Exp,2023.1.2,59.986419074716224,
Countdown_2.5s.mp4,green,red,left,Countdown_2.5s.jpg,16,0,16,0,,,,,0,4,4,4,,,,,,,,1564.2520490000002,1564.9544008,0.7023517999998603,,,,152,1570.5594339999998,left,1,0.6754121000000168,,,,,,,,,,,Tokka,2023-07-20_13h53.25.030,Rewa's Exp,2023.1.2,59.986419074716224,
Countdown_1.5s.mp4,red,green,right,Countdown_1.5s.jpg,16,0,16,0,,,,,0,5,5,2,,,,,,,,1568.8379788,1569.6544424,0.8164636000001337,,,,153,1575.1453206,right,1,0.7843381999999792,,,,,,,,,,,Tokka,2023-07-20_13h53.25.030,Rewa's Exp,2023.1.2,59.986419074716224,
Countdown_1.5s.mp4,red,green,right,Countdown_1.5s.jpg,16,0,16,0,,,,,,,,,0,0,0,2,,,,1573.5467018000002,1574.5385896,0.9918877999998585,,,,151,,,,,left,0,0.9723606999999674,,,,,,,,Tokka,2023-07-20_13h53.25.030,Rewa's Exp,2023.1.2,59.986419074716224,
Countdown_2s.mp4,green,red,left,Countdown_2s.jpg,16,0,16,0,,,,,,,,,0,1,1,5,,,,1578.4829518000001,1579.5042476,1.0212957999999617,,,,152,,,,,left,1,1.0041098000000375,,,,,,,,Tokka,2023-07-20_13h53.25.030,Rewa's Exp,2023.1.2,59.986419074716224,
Countdown_2s.mp4,red,green,right,Countdown_2s.jpg,16,0,16,0,,,,,,,,,0,2,2,1,,,,1583.432647,1584.3210617,0.8884146999998848,,,,153,,,,,right,1,0.8709658999999874,,,,,,,,Tokka,2023-07-20_13h53.25.030,Rewa's Exp,2023.1.2,59.986419074716224,
Countdown_1.5s.mp4,green,red,left,Countdown_1.5s.jpg,16,0,16,0,,,,,,,,,0,3,3,3,,,,1588.2187362,1589.1885985000001,0.9698623000001589,,,,154,,,,,left,1,0.9397828000002164,,,,,,,,Tokka,2023-07-20_13h53.25.030,Rewa's Exp,2023.1.2,59.986419074716224,
Countdown_2.5s.mp4,green,red,left,Countdown_2.5s.jpg,16,0,16,0,,,,,,,,,0,4,4,4,,,,1593.1238967000002,1594.2877976,1.1639008999998168,,,,155,,,,,left,1,1.1472674000000325,,,,,,,,Tokka,2023-07-20_13h53.25.030,Rewa's Exp,2023.1.2,59.986419074716224,
Countdown_2.5s.mp4,red,green,right,Countdown_2.5s.jpg,16,0,16,0,,,,,,,,,0,5,5,0,,,,1598.1974128000002,1599.1377804,0.940367599999945,,,,156,,,,,right,1,0.9218072000002167,,,,,,,,Tokka,2023-07-20_13h53.25.030,Rewa's Exp,2023.1.2,59.986419074716224,
,,,,,16,0,16,0,,,,,,,,,,,,,,,,,,,,,,,,,,,,,,1606.5728061999998,1606.5728061999998,1606.5728061999998,space,3.3812661999999136,,,Tokka,2023-07-20_13h53.25.030,Rewa's Exp,2023.1.2,59.986419074716224,
Countdown_1.5s.mp4,green,red,left,Countdown_1.5s.jpg,17,0,17,0,0,0,0,3,,,,,,,,,,,,1606.4320996000001,1607.1710298,0.7389301999999134,left,1,0.7195080999998709,157,,,,,,,,,,,,,,,Tokka,2023-07-20_13h53.25.030,Rewa's Exp,2023.1.2,59.986419074716224,
Countdown_2.5s.mp4,green,red,left,Countdown_2.5s.jpg,17,0,17,0,0,1,1,4,,,,,,,,,,,,1611.0629876,1611.738572,0.6755843999999342,left,1,0.6558800999999903,158,,,,,,,,,,,,,,,Tokka,2023-07-20_13h53.25.030,Rewa's Exp,2023.1.2,59.986419074716224,
Countdown_1.5s.mp4,red,green,right,Countdown_1.5s.jpg,17,0,17,0,0,2,2,2,,,,,,,,,,,,1615.6902162000001,1616.3222283,0.6320120999998835,right,1,0.6128532999999834,159,,,,,,,,,,,,,,,Tokka,2023-07-20_13h53.25.030,Rewa's Exp,2023.1.2,59.986419074716224,
Countdown_2s.mp4,red,green,right,Countdown_2s.jpg,17,0,17,0,0,3,3,1,,,,,,,,,,,,1620.2388084000002,1621.3209789,1.0821704999998474,right,1,1.0556276999999454,160,,,,,,,,,,,,,,,Tokka,2023-07-20_13h53.25.030,Rewa's Exp,2023.1.2,59.986419074716224,
Countdown_2s.mp4,green,red,left,Countdown_2s.jpg,17,0,17,0,0,4,4,5,,,,,,,,,,,,1625.2291236,1625.9542585000002,0.7251349000000573,left,1,0.6975281000001132,161,,,,,,,,,,,,,,,Tokka,2023-07-20_13h53.25.030,Rewa's Exp,2023.1.2,59.986419074716224,
Countdown_2.5s.mp4,red,green,right,Countdown_2.5s.jpg,17,0,17,0,0,5,5,0,,,,,,,,,,,,1629.8586904000001,1630.8712206,1.012530199999901,right,1,0.9888144000000239,162,,,,,,,,,,,,,,,Tokka,2023-07-20_13h53.25.030,Rewa's Exp,2023.1.2,59.986419074716224,
Countdown_2.5s.mp4,red,green,right,Countdown_2.5s.jpg,17,0,17,0,,,,,0,0,0,0,,,,,,,,1634.759096,1635.7211816000001,0.9620856000001368,,,,163,1641.0663865000001,right,1,0.9370674000000463,,,,,,,,,,,Tokka,2023-07-20_13h53.25.030,Rewa's Exp,2023.1.2,59.986419074716224,
Countdown_2s.mp4,green,red,left,Countdown_2s.jpg,17,0,17,0,,,,,0,1,1,5,,,,,,,,1639.6217069000002,1640.5547096,0.9330026999998609,,,,164,1645.9290317,left,1,0.9053751999998667,,,,,,,,,,,Tokka,2023-07-20_13h53.25.030,Rewa's Exp,2023.1.2,59.986419074716224,
Countdown_2.5s.mp4,green,red,left,Countdown_2.5s.jpg,17,0,17,0,,,,,0,2,2,4,,,,,,,,1644.4478349,1645.4546073000001,1.0067724000000453,,,,165,1650.7552070000002,left,1,0.9746281000001318,,,,,,,,,,,Tokka,2023-07-20_13h53.25.030,Rewa's Exp,2023.1.2,59.986419074716224,
Countdown_1.5s.mp4,red,green,right,Countdown_1.5s.jpg,17,0,17,0,,,,,0,3,3,2,,,,,,,,1649.359756,1650.021089,0.6613330000000133,,,,166,1655.6670986999998,right,1,0.6311897000001636,,,,,,,,,,,Tokka,2023-07-20_13h53.25.030,Rewa's Exp,2023.1.2,59.986419074716224,
Countdown_1.5s.mp4,green,red,left,Countdown_1.5s.jpg,17,0,17,0,,,,,0,4,4,3,,,,,,,,1653.9284241,1654.7045263,0.7761021999999684,,,,167,1660.235823,left,1,0.7587143000001788,,,,,,,,,,,Tokka,2023-07-20_13h53.25.030,Rewa's Exp,2023.1.2,59.986419074716224,
Countdown_2s.mp4,red,green,right,Countdown_2s.jpg,17,0,17,0,,,,,0,5,5,1,,,,,,,,1658.6186076000001,1659.6882831,1.069675499999903,,,,168,1664.9259361999998,right,1,1.044079399999987,,,,,,,,,,,Tokka,2023-07-20_13h53.25.030,Rewa's Exp,2023.1.2,59.986419074716224,
Countdown_1.5s.mp4,green,red,left,Countdown_1.5s.jpg,17,0,17,0,,,,,,,,,0,0,0,3,,,,1663.6436805,1664.3045971000001,0.6609166000000641,,,,169,,,,,left,1,0.6280115999999225,,,,,,,,Tokka,2023-07-20_13h53.25.030,Rewa's Exp,2023.1.2,59.986419074716224,
Countdown_2s.mp4,green,red,left,Countdown_2s.jpg,17,0,17,0,,,,,,,,,0,1,1,5,,,,1668.2335846,1668.9381117,0.7045270999999502,,,,170,,,,,left,1,0.68596580000019,,,,,,,,Tokka,2023-07-20_13h53.25.030,Rewa's Exp,2023.1.2,59.986419074716224,
Countdown_2.5s.mp4,green,red,left,Countdown_2.5s.jpg,17,0,17,0,,,,,,,,,0,2,2,4,,,,1672.8355487000001,1673.7382336,0.9026848999999402,,,,168,,,,,right,0,0.8838585000002013,,,,,,,,Tokka,2023-07-20_13h53.25.030,Rewa's Exp,2023.1.2,59.986419074716224,
Countdown_2s.mp4,red,green,right,Countdown_2s.jpg,17,0,17,0,,,,,,,,,0,3,3,1,,,,1677.6352377,1678.4210652000002,0.7858275000000958,,,,169,,,,,right,1,0.7561325000000352,,,,,,,,Tokka,2023-07-20_13h53.25.030,Rewa's Exp,2023.1.2,59.986419074716224,
Countdown_2.5s.mp4,red,green,right,Countdown_2.5s.jpg,17,0,17,0,,,,,,,,,0,4,4,0,,,,1682.339025,1683.0379924000001,0.6989674000001287,,,,170,,,,,right,1,0.6690815999999131,,,,,,,,Tokka,2023-07-20_13h53.25.030,Rewa's Exp,2023.1.2,59.986419074716224,
Countdown_1.5s.mp4,red,green,right,Countdown_1.5s.jpg,17,0,17,0,,,,,,,,,0,5,5,2,,,,1686.9396875,1687.7213724,0.781684900000073,,,,168,,,,,left,0,0.7548786000000973,,,,,,,,Tokka,2023-07-20_13h53.25.030,Rewa's Exp,2023.1.2,59.986419074716224,
,,,,,17,0,17,0,,,,,,,,,,,,,,,,,,,,,,,,,,,,,,1695.1561326,1695.1561326,1695.1561326,space,1.9507915000000366,,,Tokka,2023-07-20_13h53.25.030,Rewa's Exp,2023.1.2,59.986419074716224,
,,,,,,,,,,,,,,,,,,,,,,,,,,,,,,,,,,,,,,,,,,,1697.1394795,1702.1393601999998,,,,,,
